,index,rt,stimulus,key_press,name_x,trial_type,trial_index,time_elapsed,internal_node_id,response,certainty,char,transposition,order,probe_pitches,shifted_pitches,swapped_pitches,shift_direction,question_num,has_decoy,subject,sona_x,block,time,malformed,set,option_1,option_2,chose,Unnamed: 0,subject_age,Did this strategy change throughout the task?,How did you listen to the task?,"If you have had musical training, how old were you during this period (i.e., age-range)?",What is your first language?,Did you notice any change in the music? Elaborate,How did you arrive at this experiment?,What is your first language (if other)?,"Did you notice any particular changes in the music? In other words, did you base your discriminations on specific features of the melodies?",subject_gender,How did your strategy change throughout the task?,Would you consider yourself a musical person? (0-10),How many years of formal musical training do you have?,Do you play any instruments (with or without formal training)?,Which instruments do you play (if any)?,I understood the instructions of the task,I found the task difficult,What general strategy (if any) did you use to judge the similarity across the melodies?,RecordedDate,sona_y,understood task,I7_count,I5_count,I1_count,I11_count,name_y,id,triads,propriety,lerdahl_instable_modes,unique_step_sizes,IC1,IC2,IC3,IC4,IC5,IC6,IV_sum,num_of_trichords,total_trichords,num_of_triads,consecutive_semitones,subset_of_diatonic,cardinality,step_mean_error,step_mean_error_cents,unevenness,binary_unevenness,subset_of_MOLT,num_of_transpositions,dissonance_min,dissonance_max,dissonance_med,dissonance_mean,violations,segments,role_clarity,motive_strength,lev_penta,lev_dia,stackable_in_3rds,fully_scalar,imperfections,area,inverse_cardinal,prime_form,diatonic_parents,harmonicm_parents,melodicm_parents,unique_diads,total_diads,sameness_quotient,coherence_quotient,note2,note3,note4,note5,unique_n_chords,unique_n_chords_prime,diatonic_n_chords,diagnostic_interval_count,diagnostic_intervals,diagnostic_combinations,necklace_family,necklace_family_members,evenness_of_spread,step_similarity,constituent_similarity,roughness,cardinality_variety_ratio,mode_variance,differences,ambiguities,contradictions,virtual_cardinality,edo,fragment1_name,fragment2_name,step_mean_error_min,step_mean_error_max,smallest_step,step_sizes,fragment1_EOS,fragment2_EOS,rahn_differences,rahn_contradictions,rahn_ambiguities,symmetry,m2,P5,Mm3,normal,normal_name,normal_as_12edo,normal12_name,normal_as_24edo,normal24_name
0,179,544.9000000022352,"[A] option 1, [L] option 2, [G] neither",76,choice,html-keyboard-response,219,513050,0.0-219.0,2nd,high,L,-2,"['shifted', 'swapped']",4 10 4 7 -2 1 -2 10 1 7 10 1 4 10 1 7,4 10 4 7 -2 1 -2 9 1 7 10 1 4 10 1 7,4 10 4 7 -2 1 -2 1 10 7 10 1 4 10 1 7,-1,191,False,ATON0007,46199,3,2023-10-02 22:10:15.919000+00:00,,diminished,shifted,swapped,swapped,3,20.0,No,speakers on monitor (laptop),,English,,SONA for course credit,,No,Male,,5.0,0,No,,Agree,Strongly Agree,hearing and paying close attention the melodies to see if there is any change ,2023-10-02 18:37:29,46199,True,0,0,0,0,585,0,0,strictly proper,0,1,0,0,4,0,0,2,6,1,4,0,0,False,4,0,0,0,0.0,1,3,0.0811925466152858,0.0811925466152858,0.0811925466152858,0.0811925466152858,8,1,2,5,3,5,True,False,4,0.6366197723675898,585,1,0,4,0,2,8,1,1,3,6,9,,4,4,4,0,,0,3 3 3 3,1,0.0,1,1,0.0811925466152858,2.5,0,0,0,0,4,12,S6-9,S6-9,0,5,300,300,0,0,0,0,0,1,0,0,0,"0,3,6,9",12-585,"0,3,6,9",12-585,"0,6,12,18",24-266305
1,177,3241.39999999851,"[A] option 1, [L] option 2, [G] neither",76,choice,html-keyboard-response,197,465106,0.0-197.0,2nd,high,L,2,"['swapped', 'shifted']",10 4 10 4 1 4 -2 4 10 7 4 1 10 7 1 7,10 4 10 4 1 4 -2 3 10 7 4 1 10 7 1 7,10 4 10 4 1 4 -2 10 4 7 4 1 10 7 1 7,-1,171,False,ATON0007,46199,3,2023-10-02 22:10:15.919000+00:00,,diminished,swapped,shifted,shifted,3,20.0,No,speakers on monitor (laptop),,English,,SONA for course credit,,No,Male,,5.0,0,No,,Agree,Strongly Agree,hearing and paying close attention the melodies to see if there is any change ,2023-10-02 18:37:29,46199,True,0,0,0,0,585,0,0,strictly proper,0,1,0,0,4,0,0,2,6,1,4,0,0,False,4,0,0,0,0.0,1,3,0.0811925466152858,0.0811925466152858,0.0811925466152858,0.0811925466152858,8,1,2,5,3,5,True,False,4,0.6366197723675898,585,1,0,4,0,2,8,1,1,3,6,9,,4,4,4,0,,0,3 3 3 3,1,0.0,1,1,0.0811925466152858,2.5,0,0,0,0,4,12,S6-9,S6-9,0,5,300,300,0,0,0,0,0,1,0,0,0,"0,3,6,9",12-585,"0,3,6,9",12-585,"0,6,12,18",24-266305
2,176,3986.10000000149,"[A] option 1, [L] option 2, [G] neither",71,choice,html-keyboard-response,186,439720,0.0-186.0,neither,high,G,-1,"['swapped', 'shifted']",-2 1 4 -2 1 10 7 -2 10 7 -2 7 4 -2 7 -2,-2 1 4 -2 1 10 7 -3 10 7 -2 7 4 -2 7 -2,-2 1 4 -2 1 10 7 10 -2 7 -2 7 4 -2 7 -2,-1,161,False,ATON0007,46199,3,2023-10-02 22:10:15.919000+00:00,,diminished,swapped,shifted,neither,3,20.0,No,speakers on monitor (laptop),,English,,SONA for course credit,,No,Male,,5.0,0,No,,Agree,Strongly Agree,hearing and paying close attention the melodies to see if there is any change ,2023-10-02 18:37:29,46199,True,0,0,0,0,585,0,0,strictly proper,0,1,0,0,4,0,0,2,6,1,4,0,0,False,4,0,0,0,0.0,1,3,0.0811925466152858,0.0811925466152858,0.0811925466152858,0.0811925466152858,8,1,2,5,3,5,True,False,4,0.6366197723675898,585,1,0,4,0,2,8,1,1,3,6,9,,4,4,4,0,,0,3 3 3 3,1,0.0,1,1,0.0811925466152858,2.5,0,0,0,0,4,12,S6-9,S6-9,0,5,300,300,0,0,0,0,0,1,0,0,0,"0,3,6,9",12-585,"0,3,6,9",12-585,"0,6,12,18",24-266305
3,174,1497.0,"[A] option 1, [L] option 2, [G] neither",71,choice,html-keyboard-response,164,388101,0.0-164.0,neither,high,G,0,"['swapped', 'shifted']",7 1 -2 1 4 1 4 1 -2 10 7 1 10 4 -2 7,7 1 -2 1 4 1 4 1 -1 10 7 1 10 4 -2 7,7 1 -2 1 4 1 4 -2 1 10 7 1 10 4 -2 7,1,141,False,ATON0007,46199,3,2023-10-02 22:10:15.919000+00:00,,diminished,swapped,shifted,neither,3,20.0,No,speakers on monitor (laptop),,English,,SONA for course credit,,No,Male,,5.0,0,No,,Agree,Strongly Agree,hearing and paying close attention the melodies to see if there is any change ,2023-10-02 18:37:29,46199,True,0,0,0,0,585,0,0,strictly proper,0,1,0,0,4,0,0,2,6,1,4,0,0,False,4,0,0,0,0.0,1,3,0.0811925466152858,0.0811925466152858,0.0811925466152858,0.0811925466152858,8,1,2,5,3,5,True,False,4,0.6366197723675898,585,1,0,4,0,2,8,1,1,3,6,9,,4,4,4,0,,0,3 3 3 3,1,0.0,1,1,0.0811925466152858,2.5,0,0,0,0,4,12,S6-9,S6-9,0,5,300,300,0,0,0,0,0,1,0,0,0,"0,3,6,9",12-585,"0,3,6,9",12-585,"0,6,12,18",24-266305
4,170,466.5999999977648,"[A] option 1, [L] option 2, [G] neither",76,choice,html-keyboard-response,120,288093,0.0-120.0,2nd,high,L,-2,"['swapped', 'shifted']",7 4 10 4 10 4 7 4 1 7 10 1 -2 4 7 4,7 4 10 4 10 4 7 4 2 7 10 1 -2 4 7 4,7 4 10 4 10 4 7 1 4 7 10 1 -2 4 7 4,1,101,False,ATON0007,46199,3,2023-10-02 22:10:15.919000+00:00,,diminished,swapped,shifted,shifted,3,20.0,No,speakers on monitor (laptop),,English,,SONA for course credit,,No,Male,,5.0,0,No,,Agree,Strongly Agree,hearing and paying close attention the melodies to see if there is any change ,2023-10-02 18:37:29,46199,True,0,0,0,0,585,0,0,strictly proper,0,1,0,0,4,0,0,2,6,1,4,0,0,False,4,0,0,0,0.0,1,3,0.0811925466152858,0.0811925466152858,0.0811925466152858,0.0811925466152858,8,1,2,5,3,5,True,False,4,0.6366197723675898,585,1,0,4,0,2,8,1,1,3,6,9,,4,4,4,0,,0,3 3 3 3,1,0.0,1,1,0.0811925466152858,2.5,0,0,0,0,4,12,S6-9,S6-9,0,5,300,300,0,0,0,0,0,1,0,0,0,"0,3,6,9",12-585,"0,3,6,9",12-585,"0,6,12,18",24-266305
5,168,4758.699999999255,"[A] option 1, [L] option 2, [G] neither",65,choice,html-keyboard-response,98,239295,0.0-98.0,1st,high,A,1,"['shifted', 'swapped']",4 7 4 10 7 1 4 -2 10 7 4 1 -2 10 -2 1,4 7 4 10 7 1 4 -3 10 7 4 1 -2 10 -2 1,4 7 4 10 7 1 4 10 -2 7 4 1 -2 10 -2 1,-1,81,False,ATON0007,46199,3,2023-10-02 22:10:15.919000+00:00,,diminished,shifted,swapped,shifted,3,20.0,No,speakers on monitor (laptop),,English,,SONA for course credit,,No,Male,,5.0,0,No,,Agree,Strongly Agree,hearing and paying close attention the melodies to see if there is any change ,2023-10-02 18:37:29,46199,True,0,0,0,0,585,0,0,strictly proper,0,1,0,0,4,0,0,2,6,1,4,0,0,False,4,0,0,0,0.0,1,3,0.0811925466152858,0.0811925466152858,0.0811925466152858,0.0811925466152858,8,1,2,5,3,5,True,False,4,0.6366197723675898,585,1,0,4,0,2,8,1,1,3,6,9,,4,4,4,0,,0,3 3 3 3,1,0.0,1,1,0.0811925466152858,2.5,0,0,0,0,4,12,S6-9,S6-9,0,5,300,300,0,0,0,0,0,1,0,0,0,"0,3,6,9",12-585,"0,3,6,9",12-585,"0,6,12,18",24-266305
6,166,1881.6000000014901,"[A] option 1, [L] option 2, [G] neither",71,choice,html-keyboard-response,76,185025,0.0-76.0,neither,high,G,3,"['swapped', 'shifted']",-2 4 7 4 1 7 4 7 -2 4 7 10 -2 1 7 4,-2 4 7 4 1 7 4 7 -1 4 7 10 -2 1 7 4,-2 4 7 4 1 7 4 -2 7 4 7 10 -2 1 7 4,1,61,False,ATON0007,46199,3,2023-10-02 22:10:15.919000+00:00,,diminished,swapped,shifted,neither,3,20.0,No,speakers on monitor (laptop),,English,,SONA for course credit,,No,Male,,5.0,0,No,,Agree,Strongly Agree,hearing and paying close attention the melodies to see if there is any change ,2023-10-02 18:37:29,46199,True,0,0,0,0,585,0,0,strictly proper,0,1,0,0,4,0,0,2,6,1,4,0,0,False,4,0,0,0,0.0,1,3,0.0811925466152858,0.0811925466152858,0.0811925466152858,0.0811925466152858,8,1,2,5,3,5,True,False,4,0.6366197723675898,585,1,0,4,0,2,8,1,1,3,6,9,,4,4,4,0,,0,3 3 3 3,1,0.0,1,1,0.0811925466152858,2.5,0,0,0,0,4,12,S6-9,S6-9,0,5,300,300,0,0,0,0,0,1,0,0,0,"0,3,6,9",12-585,"0,3,6,9",12-585,"0,6,12,18",24-266305
7,165,1704.0999999977648,"[A] option 1, [L] option 2, [G] neither",71,choice,html-keyboard-response,65,160490,0.0-65.0,neither,high,G,-3,"['shifted', 'swapped']",-2 1 -2 4 -2 7 10 -2 7 10 7 4 7 4 10 7,-2 1 -2 4 -2 7 10 -2 6 10 7 4 7 4 10 7,-2 1 -2 4 -2 7 10 7 -2 10 7 4 7 4 10 7,-1,51,False,ATON0007,46199,3,2023-10-02 22:10:15.919000+00:00,,diminished,shifted,swapped,neither,3,20.0,No,speakers on monitor (laptop),,English,,SONA for course credit,,No,Male,,5.0,0,No,,Agree,Strongly Agree,hearing and paying close attention the melodies to see if there is any change ,2023-10-02 18:37:29,46199,True,0,0,0,0,585,0,0,strictly proper,0,1,0,0,4,0,0,2,6,1,4,0,0,False,4,0,0,0,0.0,1,3,0.0811925466152858,0.0811925466152858,0.0811925466152858,0.0811925466152858,8,1,2,5,3,5,True,False,4,0.6366197723675898,585,1,0,4,0,2,8,1,1,3,6,9,,4,4,4,0,,0,3 3 3 3,1,0.0,1,1,0.0811925466152858,2.5,0,0,0,0,4,12,S6-9,S6-9,0,5,300,300,0,0,0,0,0,1,0,0,0,"0,3,6,9",12-585,"0,3,6,9",12-585,"0,6,12,18",24-266305
8,162,5165.60000000149,"[A] option 1, [L] option 2, [G] neither",76,choice,html-keyboard-response,32,82629,0.0-32.0,2nd,high,L,-1,"['shifted', 'swapped']",10 4 7 4 -2 4 10 -2 1 7 -2 7 4 7 4 7,10 4 7 4 -2 4 10 -1 1 7 -2 7 4 7 4 7,10 4 7 4 -2 4 10 1 -2 7 -2 7 4 7 4 7,1,21,False,ATON0007,46199,3,2023-10-02 22:10:15.919000+00:00,,diminished,shifted,swapped,swapped,3,20.0,No,speakers on monitor (laptop),,English,,SONA for course credit,,No,Male,,5.0,0,No,,Agree,Strongly Agree,hearing and paying close attention the melodies to see if there is any change ,2023-10-02 18:37:29,46199,True,0,0,0,0,585,0,0,strictly proper,0,1,0,0,4,0,0,2,6,1,4,0,0,False,4,0,0,0,0.0,1,3,0.0811925466152858,0.0811925466152858,0.0811925466152858,0.0811925466152858,8,1,2,5,3,5,True,False,4,0.6366197723675898,585,1,0,4,0,2,8,1,1,3,6,9,,4,4,4,0,,0,3 3 3 3,1,0.0,1,1,0.0811925466152858,2.5,0,0,0,0,4,12,S6-9,S6-9,0,5,300,300,0,0,0,0,0,1,0,0,0,"0,3,6,9",12-585,"0,3,6,9",12-585,"0,6,12,18",24-266305
9,161,2516.5,"[A] option 1, [L] option 2, [G] neither",76,choice,html-keyboard-response,21,54573,0.0-21.0,2nd,high,L,-3,"['shifted', 'swapped']",-2 1 -2 4 10 1 10 7 1 4 7 10 4 7 -2 7,-2 1 -2 4 10 1 10 7 2 4 7 10 4 7 -2 7,-2 1 -2 4 10 1 10 1 7 4 7 10 4 7 -2 7,1,11,False,ATON0007,46199,3,2023-10-02 22:10:15.919000+00:00,,diminished,shifted,swapped,swapped,3,20.0,No,speakers on monitor (laptop),,English,,SONA for course credit,,No,Male,,5.0,0,No,,Agree,Strongly Agree,hearing and paying close attention the melodies to see if there is any change ,2023-10-02 18:37:29,46199,True,0,0,0,0,585,0,0,strictly proper,0,1,0,0,4,0,0,2,6,1,4,0,0,False,4,0,0,0,0.0,1,3,0.0811925466152858,0.0811925466152858,0.0811925466152858,0.0811925466152858,8,1,2,5,3,5,True,False,4,0.6366197723675898,585,1,0,4,0,2,8,1,1,3,6,9,,4,4,4,0,,0,3 3 3 3,1,0.0,1,1,0.0811925466152858,2.5,0,0,0,0,4,12,S6-9,S6-9,0,5,300,300,0,0,0,0,0,1,0,0,0,"0,3,6,9",12-585,"0,3,6,9",12-585,"0,6,12,18",24-266305
10,157,1586.300000000745,"[A] option 1, [L] option 2, [G] neither",76,choice,html-keyboard-response,197,488905,0.0-197.0,2nd,high,L,3,"['swapped', 'shifted']",1 7 13 7 4 1 4 7 1 4 1 10 4 1 13 10,1 7 13 7 4 1 4 7 2 4 1 10 4 1 13 10,1 7 13 7 4 1 4 1 7 4 1 10 4 1 13 10,1,171,False,ATON0007,46199,2,2023-10-02 22:01:37.168000+00:00,,diminished,swapped,shifted,shifted,3,20.0,No,speakers on monitor (laptop),,English,,SONA for course credit,,No,Male,,5.0,0,No,,Agree,Strongly Agree,hearing and paying close attention the melodies to see if there is any change ,2023-10-02 18:37:29,46199,True,0,0,0,0,585,0,0,strictly proper,0,1,0,0,4,0,0,2,6,1,4,0,0,False,4,0,0,0,0.0,1,3,0.0811925466152858,0.0811925466152858,0.0811925466152858,0.0811925466152858,8,1,2,5,3,5,True,False,4,0.6366197723675898,585,1,0,4,0,2,8,1,1,3,6,9,,4,4,4,0,,0,3 3 3 3,1,0.0,1,1,0.0811925466152858,2.5,0,0,0,0,4,12,S6-9,S6-9,0,5,300,300,0,0,0,0,0,1,0,0,0,"0,3,6,9",12-585,"0,3,6,9",12-585,"0,6,12,18",24-266305
11,155,3601.300000000745,"[A] option 1, [L] option 2, [G] neither",65,choice,html-keyboard-response,175,433160,0.0-175.0,1st,high,A,2,"['swapped', 'shifted']",10 7 10 4 10 13 10 13 7 1 7 13 4 1 13 7,10 7 10 4 10 13 10 13 6 1 7 13 4 1 13 7,10 7 10 4 10 13 10 7 13 1 7 13 4 1 13 7,-1,151,False,ATON0007,46199,2,2023-10-02 22:01:37.168000+00:00,,diminished,swapped,shifted,swapped,3,20.0,No,speakers on monitor (laptop),,English,,SONA for course credit,,No,Male,,5.0,0,No,,Agree,Strongly Agree,hearing and paying close attention the melodies to see if there is any change ,2023-10-02 18:37:29,46199,True,0,0,0,0,585,0,0,strictly proper,0,1,0,0,4,0,0,2,6,1,4,0,0,False,4,0,0,0,0.0,1,3,0.0811925466152858,0.0811925466152858,0.0811925466152858,0.0811925466152858,8,1,2,5,3,5,True,False,4,0.6366197723675898,585,1,0,4,0,2,8,1,1,3,6,9,,4,4,4,0,,0,3 3 3 3,1,0.0,1,1,0.0811925466152858,2.5,0,0,0,0,4,12,S6-9,S6-9,0,5,300,300,0,0,0,0,0,1,0,0,0,"0,3,6,9",12-585,"0,3,6,9",12-585,"0,6,12,18",24-266305
12,154,2739.2000000029802,"[A] option 1, [L] option 2, [G] neither",76,choice,html-keyboard-response,164,405635,0.0-164.0,2nd,high,L,-1,"['shifted', 'swapped']",1 7 13 7 10 1 10 4 7 13 7 10 7 13 10 13,1 7 13 7 10 1 10 5 7 13 7 10 7 13 10 13,1 7 13 7 10 1 10 7 4 13 7 10 7 13 10 13,1,141,False,ATON0007,46199,2,2023-10-02 22:01:37.168000+00:00,,diminished,shifted,swapped,swapped,3,20.0,No,speakers on monitor (laptop),,English,,SONA for course credit,,No,Male,,5.0,0,No,,Agree,Strongly Agree,hearing and paying close attention the melodies to see if there is any change ,2023-10-02 18:37:29,46199,True,0,0,0,0,585,0,0,strictly proper,0,1,0,0,4,0,0,2,6,1,4,0,0,False,4,0,0,0,0.0,1,3,0.0811925466152858,0.0811925466152858,0.0811925466152858,0.0811925466152858,8,1,2,5,3,5,True,False,4,0.6366197723675898,585,1,0,4,0,2,8,1,1,3,6,9,,4,4,4,0,,0,3 3 3 3,1,0.0,1,1,0.0811925466152858,2.5,0,0,0,0,4,12,S6-9,S6-9,0,5,300,300,0,0,0,0,0,1,0,0,0,"0,3,6,9",12-585,"0,3,6,9",12-585,"0,6,12,18",24-266305
13,180,3248.800000000745,"[A] option 1, [L] option 2, [G] neither",76,choice,html-keyboard-response,10,27313,0.0-10.0,2nd,high,L,-2,"['swapped', 'shifted']",12 9 3 6 9 12 6 3 12 15 12 9 15 12 3 9,12 9 3 6 9 12 6 2 12 15 12 9 15 12 3 9,12 9 3 6 9 12 6 12 3 15 12 9 15 12 3 9,-1,1,False,ATON0007,46199,4,2023-10-02 22:18:35.257000+00:00,,diminished,swapped,shifted,shifted,3,20.0,No,speakers on monitor (laptop),,English,,SONA for course credit,,No,Male,,5.0,0,No,,Agree,Strongly Agree,hearing and paying close attention the melodies to see if there is any change ,2023-10-02 18:37:29,46199,True,0,0,0,0,585,0,0,strictly proper,0,1,0,0,4,0,0,2,6,1,4,0,0,False,4,0,0,0,0.0,1,3,0.0811925466152858,0.0811925466152858,0.0811925466152858,0.0811925466152858,8,1,2,5,3,5,True,False,4,0.6366197723675898,585,1,0,4,0,2,8,1,1,3,6,9,,4,4,4,0,,0,3 3 3 3,1,0.0,1,1,0.0811925466152858,2.5,0,0,0,0,4,12,S6-9,S6-9,0,5,300,300,0,0,0,0,0,1,0,0,0,"0,3,6,9",12-585,"0,3,6,9",12-585,"0,6,12,18",24-266305
14,153,3193.900000002235,"[A] option 1, [L] option 2, [G] neither",76,choice,html-keyboard-response,153,378872,0.0-153.0,2nd,high,L,-1,"['shifted', 'swapped']",4 10 4 1 4 1 7 13 4 10 4 13 1 4 7 4,4 10 4 1 4 1 7 13 5 10 4 13 1 4 7 4,4 10 4 1 4 1 7 4 13 10 4 13 1 4 7 4,1,131,False,ATON0007,46199,2,2023-10-02 22:01:37.168000+00:00,,diminished,shifted,swapped,swapped,3,20.0,No,speakers on monitor (laptop),,English,,SONA for course credit,,No,Male,,5.0,0,No,,Agree,Strongly Agree,hearing and paying close attention the melodies to see if there is any change ,2023-10-02 18:37:29,46199,True,0,0,0,0,585,0,0,strictly proper,0,1,0,0,4,0,0,2,6,1,4,0,0,False,4,0,0,0,0.0,1,3,0.0811925466152858,0.0811925466152858,0.0811925466152858,0.0811925466152858,8,1,2,5,3,5,True,False,4,0.6366197723675898,585,1,0,4,0,2,8,1,1,3,6,9,,4,4,4,0,,0,3 3 3 3,1,0.0,1,1,0.0811925466152858,2.5,0,0,0,0,4,12,S6-9,S6-9,0,5,300,300,0,0,0,0,0,1,0,0,0,"0,3,6,9",12-585,"0,3,6,9",12-585,"0,6,12,18",24-266305
15,147,688.3000000007451,"[A] option 1, [L] option 2, [G] neither",76,choice,html-keyboard-response,87,204155,0.0-87.0,2nd,high,L,0,"['swapped', 'shifted']",4 1 4 10 1 7 4 7 10 4 13 7 10 13 7 1,4 1 4 10 1 7 4 6 10 4 13 7 10 13 7 1,4 1 4 10 1 7 4 10 7 4 13 7 10 13 7 1,-1,71,False,ATON0007,46199,2,2023-10-02 22:01:37.168000+00:00,,diminished,swapped,shifted,shifted,3,20.0,No,speakers on monitor (laptop),,English,,SONA for course credit,,No,Male,,5.0,0,No,,Agree,Strongly Agree,hearing and paying close attention the melodies to see if there is any change ,2023-10-02 18:37:29,46199,True,0,0,0,0,585,0,0,strictly proper,0,1,0,0,4,0,0,2,6,1,4,0,0,False,4,0,0,0,0.0,1,3,0.0811925466152858,0.0811925466152858,0.0811925466152858,0.0811925466152858,8,1,2,5,3,5,True,False,4,0.6366197723675898,585,1,0,4,0,2,8,1,1,3,6,9,,4,4,4,0,,0,3 3 3 3,1,0.0,1,1,0.0811925466152858,2.5,0,0,0,0,4,12,S6-9,S6-9,0,5,300,300,0,0,0,0,0,1,0,0,0,"0,3,6,9",12-585,"0,3,6,9",12-585,"0,6,12,18",24-266305
16,144,713.0,"[A] option 1, [L] option 2, [G] neither",71,choice,html-keyboard-response,54,130829,0.0-54.0,neither,high,G,-3,"['swapped', 'shifted']",1 7 4 7 4 13 4 13 10 4 10 13 1 7 10 13,1 7 4 7 4 13 4 12 10 4 10 13 1 7 10 13,1 7 4 7 4 13 4 10 13 4 10 13 1 7 10 13,-1,41,False,ATON0007,46199,2,2023-10-02 22:01:37.168000+00:00,,diminished,swapped,shifted,neither,3,20.0,No,speakers on monitor (laptop),,English,,SONA for course credit,,No,Male,,5.0,0,No,,Agree,Strongly Agree,hearing and paying close attention the melodies to see if there is any change ,2023-10-02 18:37:29,46199,True,0,0,0,0,585,0,0,strictly proper,0,1,0,0,4,0,0,2,6,1,4,0,0,False,4,0,0,0,0.0,1,3,0.0811925466152858,0.0811925466152858,0.0811925466152858,0.0811925466152858,8,1,2,5,3,5,True,False,4,0.6366197723675898,585,1,0,4,0,2,8,1,1,3,6,9,,4,4,4,0,,0,3 3 3 3,1,0.0,1,1,0.0811925466152858,2.5,0,0,0,0,4,12,S6-9,S6-9,0,5,300,300,0,0,0,0,0,1,0,0,0,"0,3,6,9",12-585,"0,3,6,9",12-585,"0,6,12,18",24-266305
17,143,399.4000000022352,"[A] option 1, [L] option 2, [G] neither",76,choice,html-keyboard-response,43,106358,0.0-43.0,2nd,high,L,1,"['shifted', 'swapped']",10 13 7 10 13 7 1 10 4 13 4 7 10 4 7 10,10 13 7 10 13 7 1 11 4 13 4 7 10 4 7 10,10 13 7 10 13 7 1 4 10 13 4 7 10 4 7 10,1,31,False,ATON0007,46199,2,2023-10-02 22:01:37.168000+00:00,,diminished,shifted,swapped,swapped,3,20.0,No,speakers on monitor (laptop),,English,,SONA for course credit,,No,Male,,5.0,0,No,,Agree,Strongly Agree,hearing and paying close attention the melodies to see if there is any change ,2023-10-02 18:37:29,46199,True,0,0,0,0,585,0,0,strictly proper,0,1,0,0,4,0,0,2,6,1,4,0,0,False,4,0,0,0,0.0,1,3,0.0811925466152858,0.0811925466152858,0.0811925466152858,0.0811925466152858,8,1,2,5,3,5,True,False,4,0.6366197723675898,585,1,0,4,0,2,8,1,1,3,6,9,,4,4,4,0,,0,3 3 3 3,1,0.0,1,1,0.0811925466152858,2.5,0,0,0,0,4,12,S6-9,S6-9,0,5,300,300,0,0,0,0,0,1,0,0,0,"0,3,6,9",12-585,"0,3,6,9",12-585,"0,6,12,18",24-266305
18,142,976.1999999992549,"[A] option 1, [L] option 2, [G] neither",65,choice,html-keyboard-response,32,82522,0.0-32.0,1st,high,A,-3,"['shifted', 'swapped']",7 13 10 7 1 10 4 7 10 1 4 1 10 7 4 10,7 13 10 7 1 10 4 6 10 1 4 1 10 7 4 10,7 13 10 7 1 10 4 10 7 1 4 1 10 7 4 10,-1,21,False,ATON0007,46199,2,2023-10-02 22:01:37.168000+00:00,,diminished,shifted,swapped,shifted,3,20.0,No,speakers on monitor (laptop),,English,,SONA for course credit,,No,Male,,5.0,0,No,,Agree,Strongly Agree,hearing and paying close attention the melodies to see if there is any change ,2023-10-02 18:37:29,46199,True,0,0,0,0,585,0,0,strictly proper,0,1,0,0,4,0,0,2,6,1,4,0,0,False,4,0,0,0,0.0,1,3,0.0811925466152858,0.0811925466152858,0.0811925466152858,0.0811925466152858,8,1,2,5,3,5,True,False,4,0.6366197723675898,585,1,0,4,0,2,8,1,1,3,6,9,,4,4,4,0,,0,3 3 3 3,1,0.0,1,1,0.0811925466152858,2.5,0,0,0,0,4,12,S6-9,S6-9,0,5,300,300,0,0,0,0,0,1,0,0,0,"0,3,6,9",12-585,"0,3,6,9",12-585,"0,6,12,18",24-266305
19,138,6194.70000000298,"[A] option 1, [L] option 2, [G] neither",76,choice,html-keyboard-response,214,574508,0.0-214.0,2nd,high,L,0,"['shifted', 'swapped']",2 8 2 5 8 14 8 14 5 8 14 8 11 14 11 5,2 8 2 5 8 14 8 14 4 8 14 8 11 14 11 5,2 8 2 5 8 14 8 5 14 8 14 8 11 14 11 5,-1,181,False,ATON0007,46199,1,2023-10-02 21:52:28.613000+00:00,,diminished,shifted,swapped,swapped,3,20.0,No,speakers on monitor (laptop),,English,,SONA for course credit,,No,Male,,5.0,0,No,,Agree,Strongly Agree,hearing and paying close attention the melodies to see if there is any change ,2023-10-02 18:37:29,46199,True,0,0,0,0,585,0,0,strictly proper,0,1,0,0,4,0,0,2,6,1,4,0,0,False,4,0,0,0,0.0,1,3,0.0811925466152858,0.0811925466152858,0.0811925466152858,0.0811925466152858,8,1,2,5,3,5,True,False,4,0.6366197723675898,585,1,0,4,0,2,8,1,1,3,6,9,,4,4,4,0,,0,3 3 3 3,1,0.0,1,1,0.0811925466152858,2.5,0,0,0,0,4,12,S6-9,S6-9,0,5,300,300,0,0,0,0,0,1,0,0,0,"0,3,6,9",12-585,"0,3,6,9",12-585,"0,6,12,18",24-266305
20,137,1642.0999999977648,"[A] option 1, [L] option 2, [G] neither",76,choice,html-keyboard-response,203,544706,0.0-203.0,2nd,high,L,1,"['swapped', 'shifted']",14 8 11 5 8 5 14 5 11 2 5 14 2 11 5 14,14 8 11 5 8 5 14 5 10 2 5 14 2 11 5 14,14 8 11 5 8 5 14 11 5 2 5 14 2 11 5 14,-1,171,False,ATON0007,46199,1,2023-10-02 21:52:28.613000+00:00,,diminished,swapped,shifted,shifted,3,20.0,No,speakers on monitor (laptop),,English,,SONA for course credit,,No,Male,,5.0,0,No,,Agree,Strongly Agree,hearing and paying close attention the melodies to see if there is any change ,2023-10-02 18:37:29,46199,True,0,0,0,0,585,0,0,strictly proper,0,1,0,0,4,0,0,2,6,1,4,0,0,False,4,0,0,0,0.0,1,3,0.0811925466152858,0.0811925466152858,0.0811925466152858,0.0811925466152858,8,1,2,5,3,5,True,False,4,0.6366197723675898,585,1,0,4,0,2,8,1,1,3,6,9,,4,4,4,0,,0,3 3 3 3,1,0.0,1,1,0.0811925466152858,2.5,0,0,0,0,4,12,S6-9,S6-9,0,5,300,300,0,0,0,0,0,1,0,0,0,"0,3,6,9",12-585,"0,3,6,9",12-585,"0,6,12,18",24-266305
21,136,4681.300000000745,"[A] option 1, [L] option 2, [G] neither",76,choice,html-keyboard-response,192,519696,0.0-192.0,2nd,high,L,-3,"['shifted', 'swapped']",14 8 14 11 8 11 14 11 5 8 5 11 14 11 5 11,14 8 14 11 8 11 14 12 5 8 5 11 14 11 5 11,14 8 14 11 8 11 14 5 11 8 5 11 14 11 5 11,1,161,False,ATON0007,46199,1,2023-10-02 21:52:28.613000+00:00,,diminished,shifted,swapped,swapped,3,20.0,No,speakers on monitor (laptop),,English,,SONA for course credit,,No,Male,,5.0,0,No,,Agree,Strongly Agree,hearing and paying close attention the melodies to see if there is any change ,2023-10-02 18:37:29,46199,True,0,0,0,0,585,0,0,strictly proper,0,1,0,0,4,0,0,2,6,1,4,0,0,False,4,0,0,0,0.0,1,3,0.0811925466152858,0.0811925466152858,0.0811925466152858,0.0811925466152858,8,1,2,5,3,5,True,False,4,0.6366197723675898,585,1,0,4,0,2,8,1,1,3,6,9,,4,4,4,0,,0,3 3 3 3,1,0.0,1,1,0.0811925466152858,2.5,0,0,0,0,4,12,S6-9,S6-9,0,5,300,300,0,0,0,0,0,1,0,0,0,"0,3,6,9",12-585,"0,3,6,9",12-585,"0,6,12,18",24-266305
22,134,9094.599999997765,"[A] option 1, [L] option 2, [G] neither",71,choice,html-keyboard-response,170,462907,0.0-170.0,neither,high,G,-2,"['shifted', 'swapped']",8 2 5 11 5 8 14 2 8 5 11 5 14 2 5 8,8 2 5 11 5 8 14 1 8 5 11 5 14 2 5 8,8 2 5 11 5 8 14 8 2 5 11 5 14 2 5 8,-1,141,False,ATON0007,46199,1,2023-10-02 21:52:28.613000+00:00,,diminished,shifted,swapped,neither,3,20.0,No,speakers on monitor (laptop),,English,,SONA for course credit,,No,Male,,5.0,0,No,,Agree,Strongly Agree,hearing and paying close attention the melodies to see if there is any change ,2023-10-02 18:37:29,46199,True,0,0,0,0,585,0,0,strictly proper,0,1,0,0,4,0,0,2,6,1,4,0,0,False,4,0,0,0,0.0,1,3,0.0811925466152858,0.0811925466152858,0.0811925466152858,0.0811925466152858,8,1,2,5,3,5,True,False,4,0.6366197723675898,585,1,0,4,0,2,8,1,1,3,6,9,,4,4,4,0,,0,3 3 3 3,1,0.0,1,1,0.0811925466152858,2.5,0,0,0,0,4,12,S6-9,S6-9,0,5,300,300,0,0,0,0,0,1,0,0,0,"0,3,6,9",12-585,"0,3,6,9",12-585,"0,6,12,18",24-266305
23,131,833.5,"[A] option 1, [L] option 2, [G] neither",71,choice,html-keyboard-response,137,378167,0.0-137.0,neither,high,G,-3,"['swapped', 'shifted']",5 2 8 2 11 5 8 11 5 8 11 2 14 11 14 11,5 2 8 2 11 5 8 11 6 8 11 2 14 11 14 11,5 2 8 2 11 5 8 5 11 8 11 2 14 11 14 11,1,111,False,ATON0007,46199,1,2023-10-02 21:52:28.613000+00:00,,diminished,swapped,shifted,neither,3,20.0,No,speakers on monitor (laptop),,English,,SONA for course credit,,No,Male,,5.0,0,No,,Agree,Strongly Agree,hearing and paying close attention the melodies to see if there is any change ,2023-10-02 18:37:29,46199,True,0,0,0,0,585,0,0,strictly proper,0,1,0,0,4,0,0,2,6,1,4,0,0,False,4,0,0,0,0.0,1,3,0.0811925466152858,0.0811925466152858,0.0811925466152858,0.0811925466152858,8,1,2,5,3,5,True,False,4,0.6366197723675898,585,1,0,4,0,2,8,1,1,3,6,9,,4,4,4,0,,0,3 3 3 3,1,0.0,1,1,0.0811925466152858,2.5,0,0,0,0,4,12,S6-9,S6-9,0,5,300,300,0,0,0,0,0,1,0,0,0,"0,3,6,9",12-585,"0,3,6,9",12-585,"0,6,12,18",24-266305
24,130,2842.599999997765,"[A] option 1, [L] option 2, [G] neither",71,choice,html-keyboard-response,126,353267,0.0-126.0,neither,high,G,3,"['shifted', 'swapped']",11 8 5 2 5 8 14 2 8 14 8 5 11 2 5 8,11 8 5 2 5 8 14 3 8 14 8 5 11 2 5 8,11 8 5 2 5 8 14 8 2 14 8 5 11 2 5 8,1,101,False,ATON0007,46199,1,2023-10-02 21:52:28.613000+00:00,,diminished,shifted,swapped,neither,3,20.0,No,speakers on monitor (laptop),,English,,SONA for course credit,,No,Male,,5.0,0,No,,Agree,Strongly Agree,hearing and paying close attention the melodies to see if there is any change ,2023-10-02 18:37:29,46199,True,0,0,0,0,585,0,0,strictly proper,0,1,0,0,4,0,0,2,6,1,4,0,0,False,4,0,0,0,0.0,1,3,0.0811925466152858,0.0811925466152858,0.0811925466152858,0.0811925466152858,8,1,2,5,3,5,True,False,4,0.6366197723675898,585,1,0,4,0,2,8,1,1,3,6,9,,4,4,4,0,,0,3 3 3 3,1,0.0,1,1,0.0811925466152858,2.5,0,0,0,0,4,12,S6-9,S6-9,0,5,300,300,0,0,0,0,0,1,0,0,0,"0,3,6,9",12-585,"0,3,6,9",12-585,"0,6,12,18",24-266305
25,127,1887.3999999985099,"[A] option 1, [L] option 2, [G] neither",71,choice,html-keyboard-response,93,273033,0.0-93.0,neither,high,G,-1,"['shifted', 'swapped']",5 2 8 5 2 5 2 14 8 2 5 8 5 11 14 8,5 2 8 5 2 5 2 14 7 2 5 8 5 11 14 8,5 2 8 5 2 5 2 8 14 2 5 8 5 11 14 8,-1,71,False,ATON0007,46199,1,2023-10-02 21:52:28.613000+00:00,,diminished,shifted,swapped,neither,3,20.0,No,speakers on monitor (laptop),,English,,SONA for course credit,,No,Male,,5.0,0,No,,Agree,Strongly Agree,hearing and paying close attention the melodies to see if there is any change ,2023-10-02 18:37:29,46199,True,0,0,0,0,585,0,0,strictly proper,0,1,0,0,4,0,0,2,6,1,4,0,0,False,4,0,0,0,0.0,1,3,0.0811925466152858,0.0811925466152858,0.0811925466152858,0.0811925466152858,8,1,2,5,3,5,True,False,4,0.6366197723675898,585,1,0,4,0,2,8,1,1,3,6,9,,4,4,4,0,,0,3 3 3 3,1,0.0,1,1,0.0811925466152858,2.5,0,0,0,0,4,12,S6-9,S6-9,0,5,300,300,0,0,0,0,0,1,0,0,0,"0,3,6,9",12-585,"0,3,6,9",12-585,"0,6,12,18",24-266305
26,126,1465.1000000014901,"[A] option 1, [L] option 2, [G] neither",71,choice,html-keyboard-response,82,247059,0.0-82.0,neither,high,G,-2,"['swapped', 'shifted']",2 5 2 5 2 8 14 11 5 8 14 5 14 11 14 2,2 5 2 5 2 8 14 12 5 8 14 5 14 11 14 2,2 5 2 5 2 8 14 5 11 8 14 5 14 11 14 2,1,61,False,ATON0007,46199,1,2023-10-02 21:52:28.613000+00:00,,diminished,swapped,shifted,neither,3,20.0,No,speakers on monitor (laptop),,English,,SONA for course credit,,No,Male,,5.0,0,No,,Agree,Strongly Agree,hearing and paying close attention the melodies to see if there is any change ,2023-10-02 18:37:29,46199,True,0,0,0,0,585,0,0,strictly proper,0,1,0,0,4,0,0,2,6,1,4,0,0,False,4,0,0,0,0.0,1,3,0.0811925466152858,0.0811925466152858,0.0811925466152858,0.0811925466152858,8,1,2,5,3,5,True,False,4,0.6366197723675898,585,1,0,4,0,2,8,1,1,3,6,9,,4,4,4,0,,0,3 3 3 3,1,0.0,1,1,0.0811925466152858,2.5,0,0,0,0,4,12,S6-9,S6-9,0,5,300,300,0,0,0,0,0,1,0,0,0,"0,3,6,9",12-585,"0,3,6,9",12-585,"0,6,12,18",24-266305
27,151,378.5,"[A] option 1, [L] option 2, [G] neither",65,choice,html-keyboard-response,131,310683,0.0-131.0,1st,high,A,-2,"['shifted', 'swapped']",1 7 10 4 10 4 1 4 13 10 7 10 7 1 7 10,1 7 10 4 10 4 1 4 14 10 7 10 7 1 7 10,1 7 10 4 10 4 1 13 4 10 7 10 7 1 7 10,1,111,False,ATON0007,46199,2,2023-10-02 22:01:37.168000+00:00,,diminished,shifted,swapped,shifted,3,20.0,No,speakers on monitor (laptop),,English,,SONA for course credit,,No,Male,,5.0,0,No,,Agree,Strongly Agree,hearing and paying close attention the melodies to see if there is any change ,2023-10-02 18:37:29,46199,True,0,0,0,0,585,0,0,strictly proper,0,1,0,0,4,0,0,2,6,1,4,0,0,False,4,0,0,0,0.0,1,3,0.0811925466152858,0.0811925466152858,0.0811925466152858,0.0811925466152858,8,1,2,5,3,5,True,False,4,0.6366197723675898,585,1,0,4,0,2,8,1,1,3,6,9,,4,4,4,0,,0,3 3 3 3,1,0.0,1,1,0.0811925466152858,2.5,0,0,0,0,4,12,S6-9,S6-9,0,5,300,300,0,0,0,0,0,1,0,0,0,"0,3,6,9",12-585,"0,3,6,9",12-585,"0,6,12,18",24-266305
28,121,4163.300000000745,"[A] option 1, [L] option 2, [G] neither",76,choice,html-keyboard-response,27,110639,0.0-27.0,2nd,high,L,2,"['swapped', 'shifted']",5 11 5 11 2 11 5 8 2 5 8 2 14 2 11 14,5 11 5 11 2 11 5 9 2 5 8 2 14 2 11 14,5 11 5 11 2 11 5 2 8 5 8 2 14 2 11 14,1,11,False,ATON0007,46199,1,2023-10-02 21:52:28.613000+00:00,,diminished,swapped,shifted,shifted,3,20.0,No,speakers on monitor (laptop),,English,,SONA for course credit,,No,Male,,5.0,0,No,,Agree,Strongly Agree,hearing and paying close attention the melodies to see if there is any change ,2023-10-02 18:37:29,46199,True,0,0,0,0,585,0,0,strictly proper,0,1,0,0,4,0,0,2,6,1,4,0,0,False,4,0,0,0,0.0,1,3,0.0811925466152858,0.0811925466152858,0.0811925466152858,0.0811925466152858,8,1,2,5,3,5,True,False,4,0.6366197723675898,585,1,0,4,0,2,8,1,1,3,6,9,,4,4,4,0,,0,3 3 3 3,1,0.0,1,1,0.0811925466152858,2.5,0,0,0,0,4,12,S6-9,S6-9,0,5,300,300,0,0,0,0,0,1,0,0,0,"0,3,6,9",12-585,"0,3,6,9",12-585,"0,6,12,18",24-266305
29,182,1553.199999999255,"[A] option 1, [L] option 2, [G] neither",76,choice,html-keyboard-response,32,78422,0.0-32.0,2nd,high,L,-2,"['swapped', 'shifted']",15 9 15 12 9 12 9 15 12 6 15 6 3 6 12 6,15 9 15 12 9 12 9 15 11 6 15 6 3 6 12 6,15 9 15 12 9 12 9 12 15 6 15 6 3 6 12 6,-1,21,False,ATON0007,46199,4,2023-10-02 22:18:35.257000+00:00,,diminished,swapped,shifted,shifted,3,20.0,No,speakers on monitor (laptop),,English,,SONA for course credit,,No,Male,,5.0,0,No,,Agree,Strongly Agree,hearing and paying close attention the melodies to see if there is any change ,2023-10-02 18:37:29,46199,True,0,0,0,0,585,0,0,strictly proper,0,1,0,0,4,0,0,2,6,1,4,0,0,False,4,0,0,0,0.0,1,3,0.0811925466152858,0.0811925466152858,0.0811925466152858,0.0811925466152858,8,1,2,5,3,5,True,False,4,0.6366197723675898,585,1,0,4,0,2,8,1,1,3,6,9,,4,4,4,0,,0,3 3 3 3,1,0.0,1,1,0.0811925466152858,2.5,0,0,0,0,4,12,S6-9,S6-9,0,5,300,300,0,0,0,0,0,1,0,0,0,"0,3,6,9",12-585,"0,3,6,9",12-585,"0,6,12,18",24-266305
30,184,6728.0,"[A] option 1, [L] option 2, [G] neither",65,choice,html-keyboard-response,54,135284,0.0-54.0,1st,high,A,-1,"['swapped', 'shifted']",3 6 3 9 3 12 15 12 9 15 9 6 3 9 15 3,3 6 3 9 3 12 15 13 9 15 9 6 3 9 15 3,3 6 3 9 3 12 15 9 12 15 9 6 3 9 15 3,1,41,False,ATON0007,46199,4,2023-10-02 22:18:35.257000+00:00,,diminished,swapped,shifted,swapped,3,20.0,No,speakers on monitor (laptop),,English,,SONA for course credit,,No,Male,,5.0,0,No,,Agree,Strongly Agree,hearing and paying close attention the melodies to see if there is any change ,2023-10-02 18:37:29,46199,True,0,0,0,0,585,0,0,strictly proper,0,1,0,0,4,0,0,2,6,1,4,0,0,False,4,0,0,0,0.0,1,3,0.0811925466152858,0.0811925466152858,0.0811925466152858,0.0811925466152858,8,1,2,5,3,5,True,False,4,0.6366197723675898,585,1,0,4,0,2,8,1,1,3,6,9,,4,4,4,0,,0,3 3 3 3,1,0.0,1,1,0.0811925466152858,2.5,0,0,0,0,4,12,S6-9,S6-9,0,5,300,300,0,0,0,0,0,1,0,0,0,"0,3,6,9",12-585,"0,3,6,9",12-585,"0,6,12,18",24-266305
31,122,7310.60000000149,"[A] option 1, [L] option 2, [G] neither",65,choice,html-keyboard-response,38,142606,0.0-38.0,1st,high,A,-3,"['shifted', 'swapped']",9 7 9 1 3 7 5 -1 7 5 3 9 7 5 3 -3,9 7 9 1 3 7 5 -1 6 5 3 9 7 5 3 -3,9 7 9 1 3 7 5 7 -1 5 3 9 7 5 3 -3,-1,21,False,ATON0007,46199,1,2023-10-02 21:52:28.613000+00:00,,wholetone,shifted,swapped,shifted,3,20.0,No,speakers on monitor (laptop),,English,,SONA for course credit,,No,Male,,5.0,0,No,,Agree,Strongly Agree,hearing and paying close attention the melodies to see if there is any change ,2023-10-02 18:37:29,46199,True,0,0,0,0,1365,1,0,strictly proper,0,1,0,6,0,6,0,3,15,4,24,1,0,False,6,0,0,0,0.3333333333333333,1,2,0.3149724489777975,0.3149724489777975,0.3149724489777975,0.3149724489777976,12,1,2,7,3,4,False,True,6,0.8269933431326992,1365,1,0,0,0,3,18,1,1,2,4,6,8.0,12,12,12,0,,0,2 2 2 2 2 2,1,1.71193772834421e-33,1,1,0.3149724489777976,3.5,0,0,0,0,6,12,S6-21,S6-21,0,5,200,200,0,0,0,0,0,1,0,0,0,"0,2,4,6,8,10",12-1365,"0,2,4,6,8,10",12-1365,"0,4,8,12,16,20",24-1118481
32,236,810.3999999985099,"[A] option 1, [L] option 2, [G] neither",65,choice,html-keyboard-response,197,437112,0.0-197.0,1st,high,A,-2,"['shifted', 'swapped']",6 12 6 3 12 6 3 6 12 0 12 3 12 9 12 0,6 12 6 3 12 6 3 6 11 0 12 3 12 9 12 0,6 12 6 3 12 6 3 12 6 0 12 3 12 9 12 0,-1,171,False,ATON0007,46199,6,2023-10-02 22:35:00.660000+00:00,,diminished,shifted,swapped,shifted,3,20.0,No,speakers on monitor (laptop),,English,,SONA for course credit,,No,Male,,5.0,0,No,,Agree,Strongly Agree,hearing and paying close attention the melodies to see if there is any change ,2023-10-02 18:37:29,46199,True,0,0,0,0,585,0,0,strictly proper,0,1,0,0,4,0,0,2,6,1,4,0,0,False,4,0,0,0,0.0,1,3,0.0811925466152858,0.0811925466152858,0.0811925466152858,0.0811925466152858,8,1,2,5,3,5,True,False,4,0.6366197723675898,585,1,0,4,0,2,8,1,1,3,6,9,,4,4,4,0,,0,3 3 3 3,1,0.0,1,1,0.0811925466152858,2.5,0,0,0,0,4,12,S6-9,S6-9,0,5,300,300,0,0,0,0,0,1,0,0,0,"0,3,6,9",12-585,"0,3,6,9",12-585,"0,6,12,18",24-266305
33,235,403.8999999985099,"[A] option 1, [L] option 2, [G] neither",76,choice,html-keyboard-response,186,413996,0.0-186.0,2nd,high,L,1,"['shifted', 'swapped']",0 3 9 12 6 0 3 12 0 9 6 3 12 9 6 9,0 3 9 12 6 0 3 12 1 9 6 3 12 9 6 9,0 3 9 12 6 0 3 0 12 9 6 3 12 9 6 9,1,161,False,ATON0007,46199,6,2023-10-02 22:35:00.660000+00:00,,diminished,shifted,swapped,swapped,3,20.0,No,speakers on monitor (laptop),,English,,SONA for course credit,,No,Male,,5.0,0,No,,Agree,Strongly Agree,hearing and paying close attention the melodies to see if there is any change ,2023-10-02 18:37:29,46199,True,0,0,0,0,585,0,0,strictly proper,0,1,0,0,4,0,0,2,6,1,4,0,0,False,4,0,0,0,0.0,1,3,0.0811925466152858,0.0811925466152858,0.0811925466152858,0.0811925466152858,8,1,2,5,3,5,True,False,4,0.6366197723675898,585,1,0,4,0,2,8,1,1,3,6,9,,4,4,4,0,,0,3 3 3 3,1,0.0,1,1,0.0811925466152858,2.5,0,0,0,0,4,12,S6-9,S6-9,0,5,300,300,0,0,0,0,0,1,0,0,0,"0,3,6,9",12-585,"0,3,6,9",12-585,"0,6,12,18",24-266305
34,234,599.5,"[A] option 1, [L] option 2, [G] neither",76,choice,html-keyboard-response,175,389794,0.0-175.0,2nd,high,L,0,"['swapped', 'shifted']",9 3 9 12 3 12 9 12 6 9 0 12 6 12 6 0,9 3 9 12 3 12 9 13 6 9 0 12 6 12 6 0,9 3 9 12 3 12 9 6 12 9 0 12 6 12 6 0,1,151,False,ATON0007,46199,6,2023-10-02 22:35:00.660000+00:00,,diminished,swapped,shifted,shifted,3,20.0,No,speakers on monitor (laptop),,English,,SONA for course credit,,No,Male,,5.0,0,No,,Agree,Strongly Agree,hearing and paying close attention the melodies to see if there is any change ,2023-10-02 18:37:29,46199,True,0,0,0,0,585,0,0,strictly proper,0,1,0,0,4,0,0,2,6,1,4,0,0,False,4,0,0,0,0.0,1,3,0.0811925466152858,0.0811925466152858,0.0811925466152858,0.0811925466152858,8,1,2,5,3,5,True,False,4,0.6366197723675898,585,1,0,4,0,2,8,1,1,3,6,9,,4,4,4,0,,0,3 3 3 3,1,0.0,1,1,0.0811925466152858,2.5,0,0,0,0,4,12,S6-9,S6-9,0,5,300,300,0,0,0,0,0,1,0,0,0,"0,3,6,9",12-585,"0,3,6,9",12-585,"0,6,12,18",24-266305
35,232,281.69999999925494,"[A] option 1, [L] option 2, [G] neither",76,choice,html-keyboard-response,153,344176,0.0-153.0,2nd,high,L,3,"['shifted', 'swapped']",6 9 3 6 0 6 9 3 6 12 9 12 9 0 3 9,6 9 3 6 0 6 9 4 6 12 9 12 9 0 3 9,6 9 3 6 0 6 9 6 3 12 9 12 9 0 3 9,1,131,False,ATON0007,46199,6,2023-10-02 22:35:00.660000+00:00,,diminished,shifted,swapped,swapped,3,20.0,No,speakers on monitor (laptop),,English,,SONA for course credit,,No,Male,,5.0,0,No,,Agree,Strongly Agree,hearing and paying close attention the melodies to see if there is any change ,2023-10-02 18:37:29,46199,True,0,0,0,0,585,0,0,strictly proper,0,1,0,0,4,0,0,2,6,1,4,0,0,False,4,0,0,0,0.0,1,3,0.0811925466152858,0.0811925466152858,0.0811925466152858,0.0811925466152858,8,1,2,5,3,5,True,False,4,0.6366197723675898,585,1,0,4,0,2,8,1,1,3,6,9,,4,4,4,0,,0,3 3 3 3,1,0.0,1,1,0.0811925466152858,2.5,0,0,0,0,4,12,S6-9,S6-9,0,5,300,300,0,0,0,0,0,1,0,0,0,"0,3,6,9",12-585,"0,3,6,9",12-585,"0,6,12,18",24-266305
36,231,310.30000000074506,"[A] option 1, [L] option 2, [G] neither",65,choice,html-keyboard-response,142,320775,0.0-142.0,1st,high,A,-1,"['swapped', 'shifted']",6 3 0 3 0 3 12 3 6 0 3 0 9 12 3 9,6 3 0 3 0 3 12 3 7 0 3 0 9 12 3 9,6 3 0 3 0 3 12 6 3 0 3 0 9 12 3 9,1,121,False,ATON0007,46199,6,2023-10-02 22:35:00.660000+00:00,,diminished,swapped,shifted,swapped,3,20.0,No,speakers on monitor (laptop),,English,,SONA for course credit,,No,Male,,5.0,0,No,,Agree,Strongly Agree,hearing and paying close attention the melodies to see if there is any change ,2023-10-02 18:37:29,46199,True,0,0,0,0,585,0,0,strictly proper,0,1,0,0,4,0,0,2,6,1,4,0,0,False,4,0,0,0,0.0,1,3,0.0811925466152858,0.0811925466152858,0.0811925466152858,0.0811925466152858,8,1,2,5,3,5,True,False,4,0.6366197723675898,585,1,0,4,0,2,8,1,1,3,6,9,,4,4,4,0,,0,3 3 3 3,1,0.0,1,1,0.0811925466152858,2.5,0,0,0,0,4,12,S6-9,S6-9,0,5,300,300,0,0,0,0,0,1,0,0,0,"0,3,6,9",12-585,"0,3,6,9",12-585,"0,6,12,18",24-266305
37,229,931.0999999977648,"[A] option 1, [L] option 2, [G] neither",76,choice,html-keyboard-response,120,272837,0.0-120.0,2nd,high,L,2,"['swapped', 'shifted']",0 6 3 9 12 6 3 12 6 0 6 12 6 3 6 0,0 6 3 9 12 6 3 12 5 0 6 12 6 3 6 0,0 6 3 9 12 6 3 6 12 0 6 12 6 3 6 0,-1,101,False,ATON0007,46199,6,2023-10-02 22:35:00.660000+00:00,,diminished,swapped,shifted,shifted,3,20.0,No,speakers on monitor (laptop),,English,,SONA for course credit,,No,Male,,5.0,0,No,,Agree,Strongly Agree,hearing and paying close attention the melodies to see if there is any change ,2023-10-02 18:37:29,46199,True,0,0,0,0,585,0,0,strictly proper,0,1,0,0,4,0,0,2,6,1,4,0,0,False,4,0,0,0,0.0,1,3,0.0811925466152858,0.0811925466152858,0.0811925466152858,0.0811925466152858,8,1,2,5,3,5,True,False,4,0.6366197723675898,585,1,0,4,0,2,8,1,1,3,6,9,,4,4,4,0,,0,3 3 3 3,1,0.0,1,1,0.0811925466152858,2.5,0,0,0,0,4,12,S6-9,S6-9,0,5,300,300,0,0,0,0,0,1,0,0,0,"0,3,6,9",12-585,"0,3,6,9",12-585,"0,6,12,18",24-266305
38,227,336.30000000074506,"[A] option 1, [L] option 2, [G] neither",76,choice,html-keyboard-response,98,225584,0.0-98.0,2nd,high,L,-3,"['swapped', 'shifted']",9 12 9 3 0 3 9 3 6 0 6 3 6 3 6 9,9 12 9 3 0 3 9 2 6 0 6 3 6 3 6 9,9 12 9 3 0 3 9 6 3 0 6 3 6 3 6 9,-1,81,False,ATON0007,46199,6,2023-10-02 22:35:00.660000+00:00,,diminished,swapped,shifted,shifted,3,20.0,No,speakers on monitor (laptop),,English,,SONA for course credit,,No,Male,,5.0,0,No,,Agree,Strongly Agree,hearing and paying close attention the melodies to see if there is any change ,2023-10-02 18:37:29,46199,True,0,0,0,0,585,0,0,strictly proper,0,1,0,0,4,0,0,2,6,1,4,0,0,False,4,0,0,0,0.0,1,3,0.0811925466152858,0.0811925466152858,0.0811925466152858,0.0811925466152858,8,1,2,5,3,5,True,False,4,0.6366197723675898,585,1,0,4,0,2,8,1,1,3,6,9,,4,4,4,0,,0,3 3 3 3,1,0.0,1,1,0.0811925466152858,2.5,0,0,0,0,4,12,S6-9,S6-9,0,5,300,300,0,0,0,0,0,1,0,0,0,"0,3,6,9",12-585,"0,3,6,9",12-585,"0,6,12,18",24-266305
39,225,318.69999999925494,"[A] option 1, [L] option 2, [G] neither",76,choice,html-keyboard-response,76,179132,0.0-76.0,2nd,high,L,-1,"['shifted', 'swapped']",0 3 0 6 12 9 0 9 12 6 9 0 3 12 0 12,0 3 0 6 12 9 0 10 12 6 9 0 3 12 0 12,0 3 0 6 12 9 0 12 9 6 9 0 3 12 0 12,1,61,False,ATON0007,46199,6,2023-10-02 22:35:00.660000+00:00,,diminished,shifted,swapped,swapped,3,20.0,No,speakers on monitor (laptop),,English,,SONA for course credit,,No,Male,,5.0,0,No,,Agree,Strongly Agree,hearing and paying close attention the melodies to see if there is any change ,2023-10-02 18:37:29,46199,True,0,0,0,0,585,0,0,strictly proper,0,1,0,0,4,0,0,2,6,1,4,0,0,False,4,0,0,0,0.0,1,3,0.0811925466152858,0.0811925466152858,0.0811925466152858,0.0811925466152858,8,1,2,5,3,5,True,False,4,0.6366197723675898,585,1,0,4,0,2,8,1,1,3,6,9,,4,4,4,0,,0,3 3 3 3,1,0.0,1,1,0.0811925466152858,2.5,0,0,0,0,4,12,S6-9,S6-9,0,5,300,300,0,0,0,0,0,1,0,0,0,"0,3,6,9",12-585,"0,3,6,9",12-585,"0,6,12,18",24-266305
40,223,2565.599999997765,"[A] option 1, [L] option 2, [G] neither",76,choice,html-keyboard-response,54,131273,0.0-54.0,2nd,high,L,-2,"['shifted', 'swapped']",3 9 6 12 6 12 9 0 12 9 0 3 9 0 9 0,3 9 6 12 6 12 9 -1 12 9 0 3 9 0 9 0,3 9 6 12 6 12 9 12 0 9 0 3 9 0 9 0,-1,41,False,ATON0007,46199,6,2023-10-02 22:35:00.660000+00:00,,diminished,shifted,swapped,swapped,3,20.0,No,speakers on monitor (laptop),,English,,SONA for course credit,,No,Male,,5.0,0,No,,Agree,Strongly Agree,hearing and paying close attention the melodies to see if there is any change ,2023-10-02 18:37:29,46199,True,0,0,0,0,585,0,0,strictly proper,0,1,0,0,4,0,0,2,6,1,4,0,0,False,4,0,0,0,0.0,1,3,0.0811925466152858,0.0811925466152858,0.0811925466152858,0.0811925466152858,8,1,2,5,3,5,True,False,4,0.6366197723675898,585,1,0,4,0,2,8,1,1,3,6,9,,4,4,4,0,,0,3 3 3 3,1,0.0,1,1,0.0811925466152858,2.5,0,0,0,0,4,12,S6-9,S6-9,0,5,300,300,0,0,0,0,0,1,0,0,0,"0,3,6,9",12-585,"0,3,6,9",12-585,"0,6,12,18",24-266305
41,222,1634.699999999255,"[A] option 1, [L] option 2, [G] neither",76,choice,html-keyboard-response,43,106569,0.0-43.0,2nd,high,L,-3,"['swapped', 'shifted']",3 6 9 3 6 0 3 9 6 12 0 12 9 12 9 12,3 6 9 3 6 0 3 9 5 12 0 12 9 12 9 12,3 6 9 3 6 0 3 6 9 12 0 12 9 12 9 12,-1,31,False,ATON0007,46199,6,2023-10-02 22:35:00.660000+00:00,,diminished,swapped,shifted,shifted,3,20.0,No,speakers on monitor (laptop),,English,,SONA for course credit,,No,Male,,5.0,0,No,,Agree,Strongly Agree,hearing and paying close attention the melodies to see if there is any change ,2023-10-02 18:37:29,46199,True,0,0,0,0,585,0,0,strictly proper,0,1,0,0,4,0,0,2,6,1,4,0,0,False,4,0,0,0,0.0,1,3,0.0811925466152858,0.0811925466152858,0.0811925466152858,0.0811925466152858,8,1,2,5,3,5,True,False,4,0.6366197723675898,585,1,0,4,0,2,8,1,1,3,6,9,,4,4,4,0,,0,3 3 3 3,1,0.0,1,1,0.0811925466152858,2.5,0,0,0,0,4,12,S6-9,S6-9,0,5,300,300,0,0,0,0,0,1,0,0,0,"0,3,6,9",12-585,"0,3,6,9",12-585,"0,6,12,18",24-266305
42,218,1093.6000000014901,"[A] option 1, [L] option 2, [G] neither",76,choice,html-keyboard-response,219,480617,0.0-219.0,2nd,high,L,-1,"['swapped', 'shifted']",3 9 15 12 9 3 9 15 6 12 15 6 3 9 12 9,3 9 15 12 9 3 9 16 6 12 15 6 3 9 12 9,3 9 15 12 9 3 9 6 15 12 15 6 3 9 12 9,1,191,False,ATON0007,46199,5,2023-10-02 22:26:50.611000+00:00,,diminished,swapped,shifted,shifted,3,20.0,No,speakers on monitor (laptop),,English,,SONA for course credit,,No,Male,,5.0,0,No,,Agree,Strongly Agree,hearing and paying close attention the melodies to see if there is any change ,2023-10-02 18:37:29,46199,True,0,0,0,0,585,0,0,strictly proper,0,1,0,0,4,0,0,2,6,1,4,0,0,False,4,0,0,0,0.0,1,3,0.0811925466152858,0.0811925466152858,0.0811925466152858,0.0811925466152858,8,1,2,5,3,5,True,False,4,0.6366197723675898,585,1,0,4,0,2,8,1,1,3,6,9,,4,4,4,0,,0,3 3 3 3,1,0.0,1,1,0.0811925466152858,2.5,0,0,0,0,4,12,S6-9,S6-9,0,5,300,300,0,0,0,0,0,1,0,0,0,"0,3,6,9",12-585,"0,3,6,9",12-585,"0,6,12,18",24-266305
43,183,2169.699999999255,"[A] option 1, [L] option 2, [G] neither",71,choice,html-keyboard-response,43,106078,0.0-43.0,neither,high,G,-3,"['shifted', 'swapped']",6 3 9 3 9 6 12 9 15 6 3 12 3 9 3 9,6 3 9 3 9 6 12 10 15 6 3 12 3 9 3 9,6 3 9 3 9 6 12 15 9 6 3 12 3 9 3 9,1,31,False,ATON0007,46199,4,2023-10-02 22:18:35.257000+00:00,,diminished,shifted,swapped,neither,3,20.0,No,speakers on monitor (laptop),,English,,SONA for course credit,,No,Male,,5.0,0,No,,Agree,Strongly Agree,hearing and paying close attention the melodies to see if there is any change ,2023-10-02 18:37:29,46199,True,0,0,0,0,585,0,0,strictly proper,0,1,0,0,4,0,0,2,6,1,4,0,0,False,4,0,0,0,0.0,1,3,0.0811925466152858,0.0811925466152858,0.0811925466152858,0.0811925466152858,8,1,2,5,3,5,True,False,4,0.6366197723675898,585,1,0,4,0,2,8,1,1,3,6,9,,4,4,4,0,,0,3 3 3 3,1,0.0,1,1,0.0811925466152858,2.5,0,0,0,0,4,12,S6-9,S6-9,0,5,300,300,0,0,0,0,0,1,0,0,0,"0,3,6,9",12-585,"0,3,6,9",12-585,"0,6,12,18",24-266305
44,215,2213.699999999255,"[A] option 1, [L] option 2, [G] neither",76,choice,html-keyboard-response,186,407615,0.0-186.0,2nd,high,L,0,"['shifted', 'swapped']",3 9 15 9 6 3 6 3 15 12 9 12 6 9 6 15,3 9 15 9 6 3 6 3 14 12 9 12 6 9 6 15,3 9 15 9 6 3 6 15 3 12 9 12 6 9 6 15,-1,161,False,ATON0007,46199,5,2023-10-02 22:26:50.611000+00:00,,diminished,shifted,swapped,swapped,3,20.0,No,speakers on monitor (laptop),,English,,SONA for course credit,,No,Male,,5.0,0,No,,Agree,Strongly Agree,hearing and paying close attention the melodies to see if there is any change ,2023-10-02 18:37:29,46199,True,0,0,0,0,585,0,0,strictly proper,0,1,0,0,4,0,0,2,6,1,4,0,0,False,4,0,0,0,0.0,1,3,0.0811925466152858,0.0811925466152858,0.0811925466152858,0.0811925466152858,8,1,2,5,3,5,True,False,4,0.6366197723675898,585,1,0,4,0,2,8,1,1,3,6,9,,4,4,4,0,,0,3 3 3 3,1,0.0,1,1,0.0811925466152858,2.5,0,0,0,0,4,12,S6-9,S6-9,0,5,300,300,0,0,0,0,0,1,0,0,0,"0,3,6,9",12-585,"0,3,6,9",12-585,"0,6,12,18",24-266305
45,207,1657.5,"[A] option 1, [L] option 2, [G] neither",76,choice,html-keyboard-response,98,216959,0.0-98.0,2nd,high,L,-2,"['shifted', 'swapped']",15 12 9 6 12 15 9 3 15 6 3 6 3 6 12 15,15 12 9 6 12 15 9 3 14 6 3 6 3 6 12 15,15 12 9 6 12 15 9 15 3 6 3 6 3 6 12 15,-1,81,False,ATON0007,46199,5,2023-10-02 22:26:50.611000+00:00,,diminished,shifted,swapped,swapped,3,20.0,No,speakers on monitor (laptop),,English,,SONA for course credit,,No,Male,,5.0,0,No,,Agree,Strongly Agree,hearing and paying close attention the melodies to see if there is any change ,2023-10-02 18:37:29,46199,True,0,0,0,0,585,0,0,strictly proper,0,1,0,0,4,0,0,2,6,1,4,0,0,False,4,0,0,0,0.0,1,3,0.0811925466152858,0.0811925466152858,0.0811925466152858,0.0811925466152858,8,1,2,5,3,5,True,False,4,0.6366197723675898,585,1,0,4,0,2,8,1,1,3,6,9,,4,4,4,0,,0,3 3 3 3,1,0.0,1,1,0.0811925466152858,2.5,0,0,0,0,4,12,S6-9,S6-9,0,5,300,300,0,0,0,0,0,1,0,0,0,"0,3,6,9",12-585,"0,3,6,9",12-585,"0,6,12,18",24-266305
46,206,426.0,"[A] option 1, [L] option 2, [G] neither",76,choice,html-keyboard-response,87,192071,0.0-87.0,2nd,high,L,3,"['swapped', 'shifted']",15 12 9 6 15 6 15 12 3 6 12 15 12 6 3 12,15 12 9 6 15 6 15 12 4 6 12 15 12 6 3 12,15 12 9 6 15 6 15 3 12 6 12 15 12 6 3 12,1,71,False,ATON0007,46199,5,2023-10-02 22:26:50.611000+00:00,,diminished,swapped,shifted,shifted,3,20.0,No,speakers on monitor (laptop),,English,,SONA for course credit,,No,Male,,5.0,0,No,,Agree,Strongly Agree,hearing and paying close attention the melodies to see if there is any change ,2023-10-02 18:37:29,46199,True,0,0,0,0,585,0,0,strictly proper,0,1,0,0,4,0,0,2,6,1,4,0,0,False,4,0,0,0,0.0,1,3,0.0811925466152858,0.0811925466152858,0.0811925466152858,0.0811925466152858,8,1,2,5,3,5,True,False,4,0.6366197723675898,585,1,0,4,0,2,8,1,1,3,6,9,,4,4,4,0,,0,3 3 3 3,1,0.0,1,1,0.0811925466152858,2.5,0,0,0,0,4,12,S6-9,S6-9,0,5,300,300,0,0,0,0,0,1,0,0,0,"0,3,6,9",12-585,"0,3,6,9",12-585,"0,6,12,18",24-266305
47,204,283.20000000298023,"[A] option 1, [L] option 2, [G] neither",76,choice,html-keyboard-response,54,121795,0.0-54.0,2nd,high,L,2,"['shifted', 'swapped']",6 12 9 15 9 12 9 3 12 15 3 12 9 15 12 3,6 12 9 15 9 12 9 2 12 15 3 12 9 15 12 3,6 12 9 15 9 12 9 12 3 15 3 12 9 15 12 3,-1,41,False,ATON0007,46199,5,2023-10-02 22:26:50.611000+00:00,,diminished,shifted,swapped,swapped,3,20.0,No,speakers on monitor (laptop),,English,,SONA for course credit,,No,Male,,5.0,0,No,,Agree,Strongly Agree,hearing and paying close attention the melodies to see if there is any change ,2023-10-02 18:37:29,46199,True,0,0,0,0,585,0,0,strictly proper,0,1,0,0,4,0,0,2,6,1,4,0,0,False,4,0,0,0,0.0,1,3,0.0811925466152858,0.0811925466152858,0.0811925466152858,0.0811925466152858,8,1,2,5,3,5,True,False,4,0.6366197723675898,585,1,0,4,0,2,8,1,1,3,6,9,,4,4,4,0,,0,3 3 3 3,1,0.0,1,1,0.0811925466152858,2.5,0,0,0,0,4,12,S6-9,S6-9,0,5,300,300,0,0,0,0,0,1,0,0,0,"0,3,6,9",12-585,"0,3,6,9",12-585,"0,6,12,18",24-266305
48,202,360.79999999701977,"[A] option 1, [L] option 2, [G] neither",76,choice,html-keyboard-response,32,74524,0.0-32.0,2nd,high,L,-3,"['swapped', 'shifted']",6 12 6 9 15 6 12 15 6 9 15 3 12 6 3 6,6 12 6 9 15 6 12 14 6 9 15 3 12 6 3 6,6 12 6 9 15 6 12 6 15 9 15 3 12 6 3 6,-1,21,False,ATON0007,46199,5,2023-10-02 22:26:50.611000+00:00,,diminished,swapped,shifted,shifted,3,20.0,No,speakers on monitor (laptop),,English,,SONA for course credit,,No,Male,,5.0,0,No,,Agree,Strongly Agree,hearing and paying close attention the melodies to see if there is any change ,2023-10-02 18:37:29,46199,True,0,0,0,0,585,0,0,strictly proper,0,1,0,0,4,0,0,2,6,1,4,0,0,False,4,0,0,0,0.0,1,3,0.0811925466152858,0.0811925466152858,0.0811925466152858,0.0811925466152858,8,1,2,5,3,5,True,False,4,0.6366197723675898,585,1,0,4,0,2,8,1,1,3,6,9,,4,4,4,0,,0,3 3 3 3,1,0.0,1,1,0.0811925466152858,2.5,0,0,0,0,4,12,S6-9,S6-9,0,5,300,300,0,0,0,0,0,1,0,0,0,"0,3,6,9",12-585,"0,3,6,9",12-585,"0,6,12,18",24-266305
49,201,1957.0,"[A] option 1, [L] option 2, [G] neither",71,choice,html-keyboard-response,21,51630,0.0-21.0,neither,high,G,-1,"['shifted', 'swapped']",3 6 12 15 6 12 15 6 12 9 15 6 15 9 15 6,3 6 12 15 6 12 15 6 13 9 15 6 15 9 15 6,3 6 12 15 6 12 15 12 6 9 15 6 15 9 15 6,1,11,False,ATON0007,46199,5,2023-10-02 22:26:50.611000+00:00,,diminished,shifted,swapped,neither,3,20.0,No,speakers on monitor (laptop),,English,,SONA for course credit,,No,Male,,5.0,0,No,,Agree,Strongly Agree,hearing and paying close attention the melodies to see if there is any change ,2023-10-02 18:37:29,46199,True,0,0,0,0,585,0,0,strictly proper,0,1,0,0,4,0,0,2,6,1,4,0,0,False,4,0,0,0,0.0,1,3,0.0811925466152858,0.0811925466152858,0.0811925466152858,0.0811925466152858,8,1,2,5,3,5,True,False,4,0.6366197723675898,585,1,0,4,0,2,8,1,1,3,6,9,,4,4,4,0,,0,3 3 3 3,1,0.0,1,1,0.0811925466152858,2.5,0,0,0,0,4,12,S6-9,S6-9,0,5,300,300,0,0,0,0,0,1,0,0,0,"0,3,6,9",12-585,"0,3,6,9",12-585,"0,6,12,18",24-266305
50,200,306.1000000014901,"[A] option 1, [L] option 2, [G] neither",76,choice,html-keyboard-response,10,27442,0.0-10.0,2nd,high,L,-2,"['swapped', 'shifted']",3 6 9 3 9 3 9 6 12 15 6 12 6 15 3 9,3 6 9 3 9 3 9 7 12 15 6 12 6 15 3 9,3 6 9 3 9 3 9 12 6 15 6 12 6 15 3 9,1,1,False,ATON0007,46199,5,2023-10-02 22:26:50.611000+00:00,,diminished,swapped,shifted,shifted,3,20.0,No,speakers on monitor (laptop),,English,,SONA for course credit,,No,Male,,5.0,0,No,,Agree,Strongly Agree,hearing and paying close attention the melodies to see if there is any change ,2023-10-02 18:37:29,46199,True,0,0,0,0,585,0,0,strictly proper,0,1,0,0,4,0,0,2,6,1,4,0,0,False,4,0,0,0,0.0,1,3,0.0811925466152858,0.0811925466152858,0.0811925466152858,0.0811925466152858,8,1,2,5,3,5,True,False,4,0.6366197723675898,585,1,0,4,0,2,8,1,1,3,6,9,,4,4,4,0,,0,3 3 3 3,1,0.0,1,1,0.0811925466152858,2.5,0,0,0,0,4,12,S6-9,S6-9,0,5,300,300,0,0,0,0,0,1,0,0,0,"0,3,6,9",12-585,"0,3,6,9",12-585,"0,6,12,18",24-266305
51,198,407.4000000022352,"[A] option 1, [L] option 2, [G] neither",65,choice,html-keyboard-response,208,473696,0.0-208.0,1st,high,A,3,"['swapped', 'shifted']",15 12 15 9 3 12 6 9 3 12 6 9 15 6 9 3,15 12 15 9 3 12 6 9 4 12 6 9 15 6 9 3,15 12 15 9 3 12 6 3 9 12 6 9 15 6 9 3,1,181,False,ATON0007,46199,4,2023-10-02 22:18:35.257000+00:00,,diminished,swapped,shifted,swapped,3,20.0,No,speakers on monitor (laptop),,English,,SONA for course credit,,No,Male,,5.0,0,No,,Agree,Strongly Agree,hearing and paying close attention the melodies to see if there is any change ,2023-10-02 18:37:29,46199,True,0,0,0,0,585,0,0,strictly proper,0,1,0,0,4,0,0,2,6,1,4,0,0,False,4,0,0,0,0.0,1,3,0.0811925466152858,0.0811925466152858,0.0811925466152858,0.0811925466152858,8,1,2,5,3,5,True,False,4,0.6366197723675898,585,1,0,4,0,2,8,1,1,3,6,9,,4,4,4,0,,0,3 3 3 3,1,0.0,1,1,0.0811925466152858,2.5,0,0,0,0,4,12,S6-9,S6-9,0,5,300,300,0,0,0,0,0,1,0,0,0,"0,3,6,9",12-585,"0,3,6,9",12-585,"0,6,12,18",24-266305
52,197,367.30000000074506,"[A] option 1, [L] option 2, [G] neither",76,choice,html-keyboard-response,197,450821,0.0-197.0,2nd,high,L,0,"['shifted', 'swapped']",3 6 12 15 12 9 6 9 3 6 12 3 6 15 3 15,3 6 12 15 12 9 6 9 4 6 12 3 6 15 3 15,3 6 12 15 12 9 6 3 9 6 12 3 6 15 3 15,1,171,False,ATON0007,46199,4,2023-10-02 22:18:35.257000+00:00,,diminished,shifted,swapped,swapped,3,20.0,No,speakers on monitor (laptop),,English,,SONA for course credit,,No,Male,,5.0,0,No,,Agree,Strongly Agree,hearing and paying close attention the melodies to see if there is any change ,2023-10-02 18:37:29,46199,True,0,0,0,0,585,0,0,strictly proper,0,1,0,0,4,0,0,2,6,1,4,0,0,False,4,0,0,0,0.0,1,3,0.0811925466152858,0.0811925466152858,0.0811925466152858,0.0811925466152858,8,1,2,5,3,5,True,False,4,0.6366197723675898,585,1,0,4,0,2,8,1,1,3,6,9,,4,4,4,0,,0,3 3 3 3,1,0.0,1,1,0.0811925466152858,2.5,0,0,0,0,4,12,S6-9,S6-9,0,5,300,300,0,0,0,0,0,1,0,0,0,"0,3,6,9",12-585,"0,3,6,9",12-585,"0,6,12,18",24-266305
53,193,490.5,"[A] option 1, [L] option 2, [G] neither",76,choice,html-keyboard-response,153,356909,0.0-153.0,2nd,high,L,-3,"['shifted', 'swapped']",15 12 6 3 9 6 15 3 6 12 9 3 15 6 15 9,15 12 6 3 9 6 15 2 6 12 9 3 15 6 15 9,15 12 6 3 9 6 15 6 3 12 9 3 15 6 15 9,-1,131,False,ATON0007,46199,4,2023-10-02 22:18:35.257000+00:00,,diminished,shifted,swapped,swapped,3,20.0,No,speakers on monitor (laptop),,English,,SONA for course credit,,No,Male,,5.0,0,No,,Agree,Strongly Agree,hearing and paying close attention the melodies to see if there is any change ,2023-10-02 18:37:29,46199,True,0,0,0,0,585,0,0,strictly proper,0,1,0,0,4,0,0,2,6,1,4,0,0,False,4,0,0,0,0.0,1,3,0.0811925466152858,0.0811925466152858,0.0811925466152858,0.0811925466152858,8,1,2,5,3,5,True,False,4,0.6366197723675898,585,1,0,4,0,2,8,1,1,3,6,9,,4,4,4,0,,0,3 3 3 3,1,0.0,1,1,0.0811925466152858,2.5,0,0,0,0,4,12,S6-9,S6-9,0,5,300,300,0,0,0,0,0,1,0,0,0,"0,3,6,9",12-585,"0,3,6,9",12-585,"0,6,12,18",24-266305
54,192,2242.2000000029802,"[A] option 1, [L] option 2, [G] neither",65,choice,html-keyboard-response,142,334068,0.0-142.0,1st,high,A,2,"['swapped', 'shifted']",3 9 12 9 6 12 6 9 15 3 9 12 6 3 6 12,3 9 12 9 6 12 6 9 14 3 9 12 6 3 6 12,3 9 12 9 6 12 6 15 9 3 9 12 6 3 6 12,-1,121,False,ATON0007,46199,4,2023-10-02 22:18:35.257000+00:00,,diminished,swapped,shifted,swapped,3,20.0,No,speakers on monitor (laptop),,English,,SONA for course credit,,No,Male,,5.0,0,No,,Agree,Strongly Agree,hearing and paying close attention the melodies to see if there is any change ,2023-10-02 18:37:29,46199,True,0,0,0,0,585,0,0,strictly proper,0,1,0,0,4,0,0,2,6,1,4,0,0,False,4,0,0,0,0.0,1,3,0.0811925466152858,0.0811925466152858,0.0811925466152858,0.0811925466152858,8,1,2,5,3,5,True,False,4,0.6366197723675898,585,1,0,4,0,2,8,1,1,3,6,9,,4,4,4,0,,0,3 3 3 3,1,0.0,1,1,0.0811925466152858,2.5,0,0,0,0,4,12,S6-9,S6-9,0,5,300,300,0,0,0,0,0,1,0,0,0,"0,3,6,9",12-585,"0,3,6,9",12-585,"0,6,12,18",24-266305
55,187,1194.300000000745,"[A] option 1, [L] option 2, [G] neither",65,choice,html-keyboard-response,87,206583,0.0-87.0,1st,high,A,-1,"['shifted', 'swapped']",15 9 15 12 3 12 6 9 15 3 15 9 3 9 12 6,15 9 15 12 3 12 6 9 16 3 15 9 3 9 12 6,15 9 15 12 3 12 6 15 9 3 15 9 3 9 12 6,1,71,False,ATON0007,46199,4,2023-10-02 22:18:35.257000+00:00,,diminished,shifted,swapped,shifted,3,20.0,No,speakers on monitor (laptop),,English,,SONA for course credit,,No,Male,,5.0,0,No,,Agree,Strongly Agree,hearing and paying close attention the melodies to see if there is any change ,2023-10-02 18:37:29,46199,True,0,0,0,0,585,0,0,strictly proper,0,1,0,0,4,0,0,2,6,1,4,0,0,False,4,0,0,0,0.0,1,3,0.0811925466152858,0.0811925466152858,0.0811925466152858,0.0811925466152858,8,1,2,5,3,5,True,False,4,0.6366197723675898,585,1,0,4,0,2,8,1,1,3,6,9,,4,4,4,0,,0,3 3 3 3,1,0.0,1,1,0.0811925466152858,2.5,0,0,0,0,4,12,S6-9,S6-9,0,5,300,300,0,0,0,0,0,1,0,0,0,"0,3,6,9",12-585,"0,3,6,9",12-585,"0,6,12,18",24-266305
56,185,754.3999999985099,"[A] option 1, [L] option 2, [G] neither",71,choice,html-keyboard-response,65,158433,0.0-65.0,neither,high,G,1,"['shifted', 'swapped']",6 12 9 12 15 9 12 15 9 6 3 9 12 3 9 15,6 12 9 12 15 9 12 14 9 6 3 9 12 3 9 15,6 12 9 12 15 9 12 9 15 6 3 9 12 3 9 15,-1,51,False,ATON0007,46199,4,2023-10-02 22:18:35.257000+00:00,,diminished,shifted,swapped,neither,3,20.0,No,speakers on monitor (laptop),,English,,SONA for course credit,,No,Male,,5.0,0,No,,Agree,Strongly Agree,hearing and paying close attention the melodies to see if there is any change ,2023-10-02 18:37:29,46199,True,0,0,0,0,585,0,0,strictly proper,0,1,0,0,4,0,0,2,6,1,4,0,0,False,4,0,0,0,0.0,1,3,0.0811925466152858,0.0811925466152858,0.0811925466152858,0.0811925466152858,8,1,2,5,3,5,True,False,4,0.6366197723675898,585,1,0,4,0,2,8,1,1,3,6,9,,4,4,4,0,,0,3 3 3 3,1,0.0,1,1,0.0811925466152858,2.5,0,0,0,0,4,12,S6-9,S6-9,0,5,300,300,0,0,0,0,0,1,0,0,0,"0,3,6,9",12-585,"0,3,6,9",12-585,"0,6,12,18",24-266305
57,209,629.1000000014901,"[A] option 1, [L] option 2, [G] neither",76,choice,html-keyboard-response,120,262613,0.0-120.0,2nd,high,L,-3,"['swapped', 'shifted']",3 6 3 6 3 12 9 3 12 15 6 3 12 9 12 6,3 6 3 6 3 12 9 3 11 15 6 3 12 9 12 6,3 6 3 6 3 12 9 12 3 15 6 3 12 9 12 6,-1,101,False,ATON0007,46199,5,2023-10-02 22:26:50.611000+00:00,,diminished,swapped,shifted,shifted,3,20.0,No,speakers on monitor (laptop),,English,,SONA for course credit,,No,Male,,5.0,0,No,,Agree,Strongly Agree,hearing and paying close attention the melodies to see if there is any change ,2023-10-02 18:37:29,46199,True,0,0,0,0,585,0,0,strictly proper,0,1,0,0,4,0,0,2,6,1,4,0,0,False,4,0,0,0,0.0,1,3,0.0811925466152858,0.0811925466152858,0.0811925466152858,0.0811925466152858,8,1,2,5,3,5,True,False,4,0.6366197723675898,585,1,0,4,0,2,8,1,1,3,6,9,,4,4,4,0,,0,3 3 3 3,1,0.0,1,1,0.0811925466152858,2.5,0,0,0,0,4,12,S6-9,S6-9,0,5,300,300,0,0,0,0,0,1,0,0,0,"0,3,6,9",12-585,"0,3,6,9",12-585,"0,6,12,18",24-266305
58,120,7274.5,"[A] option 1, [L] option 2, [G] neither",76,choice,html-keyboard-response,16,82351,0.0-16.0,2nd,high,L,-1,"['swapped', 'shifted']",5 11 5 2 8 11 2 14 11 5 11 5 14 5 2 11,5 11 5 2 8 11 2 14 10 5 11 5 14 5 2 11,5 11 5 2 8 11 2 11 14 5 11 5 14 5 2 11,-1,1,False,ATON0007,46199,1,2023-10-02 21:52:28.613000+00:00,,diminished,swapped,shifted,shifted,3,20.0,No,speakers on monitor (laptop),,English,,SONA for course credit,,No,Male,,5.0,0,No,,Agree,Strongly Agree,hearing and paying close attention the melodies to see if there is any change ,2023-10-02 18:37:29,46199,True,0,0,0,0,585,0,0,strictly proper,0,1,0,0,4,0,0,2,6,1,4,0,0,False,4,0,0,0,0.0,1,3,0.0811925466152858,0.0811925466152858,0.0811925466152858,0.0811925466152858,8,1,2,5,3,5,True,False,4,0.6366197723675898,585,1,0,4,0,2,8,1,1,3,6,9,,4,4,4,0,,0,3 3 3 3,1,0.0,1,1,0.0811925466152858,2.5,0,0,0,0,4,12,S6-9,S6-9,0,5,300,300,0,0,0,0,0,1,0,0,0,"0,3,6,9",12-585,"0,3,6,9",12-585,"0,6,12,18",24-266305
59,145,1883.0,"[A] option 1, [L] option 2, [G] neither",71,choice,html-keyboard-response,65,156261,0.0-65.0,neither,high,G,-2,"['swapped', 'shifted']",13 10 13 7 1 4 7 13 10 4 1 4 10 7 13 10,13 10 13 7 1 4 7 13 9 4 1 4 10 7 13 10,13 10 13 7 1 4 7 10 13 4 1 4 10 7 13 10,-1,51,False,ATON0007,46199,2,2023-10-02 22:01:37.168000+00:00,,diminished,swapped,shifted,neither,3,20.0,No,speakers on monitor (laptop),,English,,SONA for course credit,,No,Male,,5.0,0,No,,Agree,Strongly Agree,hearing and paying close attention the melodies to see if there is any change ,2023-10-02 18:37:29,46199,True,0,0,0,0,585,0,0,strictly proper,0,1,0,0,4,0,0,2,6,1,4,0,0,False,4,0,0,0,0.0,1,3,0.0811925466152858,0.0811925466152858,0.0811925466152858,0.0811925466152858,8,1,2,5,3,5,True,False,4,0.6366197723675898,585,1,0,4,0,2,8,1,1,3,6,9,,4,4,4,0,,0,3 3 3 3,1,0.0,1,1,0.0811925466152858,2.5,0,0,0,0,4,12,S6-9,S6-9,0,5,300,300,0,0,0,0,0,1,0,0,0,"0,3,6,9",12-585,"0,3,6,9",12-585,"0,6,12,18",24-266305
60,124,1684.0,"[A] option 1, [L] option 2, [G] neither",71,choice,html-keyboard-response,60,195059,0.0-60.0,neither,high,G,2,"['swapped', 'shifted']",1 3 -1 1 -1 1 -1 3 7 -3 3 5 1 3 1 7,1 3 -1 1 -1 1 -1 3 8 -3 3 5 1 3 1 7,1 3 -1 1 -1 1 -1 7 3 -3 3 5 1 3 1 7,1,41,False,ATON0007,46199,1,2023-10-02 21:52:28.613000+00:00,,wholetone,swapped,shifted,neither,3,20.0,No,speakers on monitor (laptop),,English,,SONA for course credit,,No,Male,,5.0,0,No,,Agree,Strongly Agree,hearing and paying close attention the melodies to see if there is any change ,2023-10-02 18:37:29,46199,True,0,0,0,0,1365,1,0,strictly proper,0,1,0,6,0,6,0,3,15,4,24,1,0,False,6,0,0,0,0.3333333333333333,1,2,0.3149724489777975,0.3149724489777975,0.3149724489777975,0.3149724489777976,12,1,2,7,3,4,False,True,6,0.8269933431326992,1365,1,0,0,0,3,18,1,1,2,4,6,8.0,12,12,12,0,,0,2 2 2 2 2 2,1,1.71193772834421e-33,1,1,0.3149724489777976,3.5,0,0,0,0,6,12,S6-21,S6-21,0,5,200,200,0,0,0,0,0,1,0,0,0,"0,2,4,6,8,10",12-1365,"0,2,4,6,8,10",12-1365,"0,4,8,12,16,20",24-1118481
61,189,364.5999999977648,"[A] option 1, [L] option 2, [G] neither",65,choice,html-keyboard-response,109,253967,0.0-109.0,1st,high,A,-1,"['shifted', 'swapped']",9 7 13 5 3 7 3 11 5 13 15 9 3 9 13 3,9 7 13 5 3 7 3 12 5 13 15 9 3 9 13 3,9 7 13 5 3 7 3 5 11 13 15 9 3 9 13 3,1,91,False,ATON0007,46199,4,2023-10-02 22:18:35.257000+00:00,,wholetone,shifted,swapped,shifted,3,20.0,No,speakers on monitor (laptop),,English,,SONA for course credit,,No,Male,,5.0,0,No,,Agree,Strongly Agree,hearing and paying close attention the melodies to see if there is any change ,2023-10-02 18:37:29,46199,True,0,0,0,0,1365,1,0,strictly proper,0,1,0,6,0,6,0,3,15,4,24,1,0,False,6,0,0,0,0.3333333333333333,1,2,0.3149724489777975,0.3149724489777975,0.3149724489777975,0.3149724489777976,12,1,2,7,3,4,False,True,6,0.8269933431326992,1365,1,0,0,0,3,18,1,1,2,4,6,8.0,12,12,12,0,,0,2 2 2 2 2 2,1,1.71193772834421e-33,1,1,0.3149724489777976,3.5,0,0,0,0,6,12,S6-21,S6-21,0,5,200,200,0,0,0,0,0,1,0,0,0,"0,2,4,6,8,10",12-1365,"0,2,4,6,8,10",12-1365,"0,4,8,12,16,20",24-1118481
62,190,1654.3999999985099,"[A] option 1, [L] option 2, [G] neither",76,choice,html-keyboard-response,120,278530,0.0-120.0,2nd,high,L,2,"['swapped', 'shifted']",7 9 5 3 7 5 3 7 15 9 7 11 7 13 11 15,7 9 5 3 7 5 3 7 14 9 7 11 7 13 11 15,7 9 5 3 7 5 3 15 7 9 7 11 7 13 11 15,-1,101,False,ATON0007,46199,4,2023-10-02 22:18:35.257000+00:00,,wholetone,swapped,shifted,shifted,3,20.0,No,speakers on monitor (laptop),,English,,SONA for course credit,,No,Male,,5.0,0,No,,Agree,Strongly Agree,hearing and paying close attention the melodies to see if there is any change ,2023-10-02 18:37:29,46199,True,0,0,0,0,1365,1,0,strictly proper,0,1,0,6,0,6,0,3,15,4,24,1,0,False,6,0,0,0,0.3333333333333333,1,2,0.3149724489777975,0.3149724489777975,0.3149724489777975,0.3149724489777976,12,1,2,7,3,4,False,True,6,0.8269933431326992,1365,1,0,0,0,3,18,1,1,2,4,6,8.0,12,12,12,0,,0,2 2 2 2 2 2,1,1.71193772834421e-33,1,1,0.3149724489777976,3.5,0,0,0,0,6,12,S6-21,S6-21,0,5,200,200,0,0,0,0,0,1,0,0,0,"0,2,4,6,8,10",12-1365,"0,2,4,6,8,10",12-1365,"0,4,8,12,16,20",24-1118481
63,191,8712.60000000149,"[A] option 1, [L] option 2, [G] neither",76,choice,html-keyboard-response,131,309328,0.0-131.0,2nd,high,L,0,"['shifted', 'swapped']",13 7 9 7 9 11 9 11 5 9 11 13 11 3 5 13,13 7 9 7 9 11 9 11 6 9 11 13 11 3 5 13,13 7 9 7 9 11 9 5 11 9 11 13 11 3 5 13,1,111,False,ATON0007,46199,4,2023-10-02 22:18:35.257000+00:00,,wholetone,shifted,swapped,swapped,3,20.0,No,speakers on monitor (laptop),,English,,SONA for course credit,,No,Male,,5.0,0,No,,Agree,Strongly Agree,hearing and paying close attention the melodies to see if there is any change ,2023-10-02 18:37:29,46199,True,0,0,0,0,1365,1,0,strictly proper,0,1,0,6,0,6,0,3,15,4,24,1,0,False,6,0,0,0,0.3333333333333333,1,2,0.3149724489777975,0.3149724489777975,0.3149724489777975,0.3149724489777976,12,1,2,7,3,4,False,True,6,0.8269933431326992,1365,1,0,0,0,3,18,1,1,2,4,6,8.0,12,12,12,0,,0,2 2 2 2 2 2,1,1.71193772834421e-33,1,1,0.3149724489777976,3.5,0,0,0,0,6,12,S6-21,S6-21,0,5,200,200,0,0,0,0,0,1,0,0,0,"0,2,4,6,8,10",12-1365,"0,2,4,6,8,10",12-1365,"0,4,8,12,16,20",24-1118481
64,194,1689.800000000745,"[A] option 1, [L] option 2, [G] neither",76,choice,html-keyboard-response,164,381059,0.0-164.0,2nd,high,L,-2,"['swapped', 'shifted']",15 11 15 13 11 15 5 13 3 7 9 7 9 3 7 15,15 11 15 13 11 15 5 14 3 7 9 7 9 3 7 15,15 11 15 13 11 15 5 3 13 7 9 7 9 3 7 15,1,141,False,ATON0007,46199,4,2023-10-02 22:18:35.257000+00:00,,wholetone,swapped,shifted,shifted,3,20.0,No,speakers on monitor (laptop),,English,,SONA for course credit,,No,Male,,5.0,0,No,,Agree,Strongly Agree,hearing and paying close attention the melodies to see if there is any change ,2023-10-02 18:37:29,46199,True,0,0,0,0,1365,1,0,strictly proper,0,1,0,6,0,6,0,3,15,4,24,1,0,False,6,0,0,0,0.3333333333333333,1,2,0.3149724489777975,0.3149724489777975,0.3149724489777975,0.3149724489777976,12,1,2,7,3,4,False,True,6,0.8269933431326992,1365,1,0,0,0,3,18,1,1,2,4,6,8.0,12,12,12,0,,0,2 2 2 2 2 2,1,1.71193772834421e-33,1,1,0.3149724489777976,3.5,0,0,0,0,6,12,S6-21,S6-21,0,5,200,200,0,0,0,0,0,1,0,0,0,"0,2,4,6,8,10",12-1365,"0,2,4,6,8,10",12-1365,"0,4,8,12,16,20",24-1118481
65,195,869.2999999970198,"[A] option 1, [L] option 2, [G] neither",65,choice,html-keyboard-response,175,404387,0.0-175.0,1st,high,A,-3,"['shifted', 'swapped']",11 7 3 9 11 13 3 7 13 11 5 13 11 9 13 15,11 7 3 9 11 13 3 7 12 11 5 13 11 9 13 15,11 7 3 9 11 13 3 13 7 11 5 13 11 9 13 15,-1,151,False,ATON0007,46199,4,2023-10-02 22:18:35.257000+00:00,,wholetone,shifted,swapped,shifted,3,20.0,No,speakers on monitor (laptop),,English,,SONA for course credit,,No,Male,,5.0,0,No,,Agree,Strongly Agree,hearing and paying close attention the melodies to see if there is any change ,2023-10-02 18:37:29,46199,True,0,0,0,0,1365,1,0,strictly proper,0,1,0,6,0,6,0,3,15,4,24,1,0,False,6,0,0,0,0.3333333333333333,1,2,0.3149724489777975,0.3149724489777975,0.3149724489777975,0.3149724489777976,12,1,2,7,3,4,False,True,6,0.8269933431326992,1365,1,0,0,0,3,18,1,1,2,4,6,8.0,12,12,12,0,,0,2 2 2 2 2 2,1,1.71193772834421e-33,1,1,0.3149724489777976,3.5,0,0,0,0,6,12,S6-21,S6-21,0,5,200,200,0,0,0,0,0,1,0,0,0,"0,2,4,6,8,10",12-1365,"0,2,4,6,8,10",12-1365,"0,4,8,12,16,20",24-1118481
66,196,411.80000000074506,"[A] option 1, [L] option 2, [G] neither",65,choice,html-keyboard-response,186,428111,0.0-186.0,1st,high,A,-3,"['shifted', 'swapped']",7 11 13 7 13 7 5 15 11 9 15 5 13 3 5 3,7 11 13 7 13 7 5 15 10 9 15 5 13 3 5 3,7 11 13 7 13 7 5 11 15 9 15 5 13 3 5 3,-1,161,False,ATON0007,46199,4,2023-10-02 22:18:35.257000+00:00,,wholetone,shifted,swapped,shifted,3,20.0,No,speakers on monitor (laptop),,English,,SONA for course credit,,No,Male,,5.0,0,No,,Agree,Strongly Agree,hearing and paying close attention the melodies to see if there is any change ,2023-10-02 18:37:29,46199,True,0,0,0,0,1365,1,0,strictly proper,0,1,0,6,0,6,0,3,15,4,24,1,0,False,6,0,0,0,0.3333333333333333,1,2,0.3149724489777975,0.3149724489777975,0.3149724489777975,0.3149724489777976,12,1,2,7,3,4,False,True,6,0.8269933431326992,1365,1,0,0,0,3,18,1,1,2,4,6,8.0,12,12,12,0,,0,2 2 2 2 2 2,1,1.71193772834421e-33,1,1,0.3149724489777976,3.5,0,0,0,0,6,12,S6-21,S6-21,0,5,200,200,0,0,0,0,0,1,0,0,0,"0,2,4,6,8,10",12-1365,"0,2,4,6,8,10",12-1365,"0,4,8,12,16,20",24-1118481
67,199,356.20000000298023,"[A] option 1, [L] option 2, [G] neither",76,choice,html-keyboard-response,219,496362,0.0-219.0,2nd,high,L,3,"['swapped', 'shifted']",11 13 7 3 11 13 9 11 13 9 5 13 15 9 15 5,11 13 7 3 11 13 9 12 13 9 5 13 15 9 15 5,11 13 7 3 11 13 9 13 11 9 5 13 15 9 15 5,1,191,False,ATON0007,46199,4,2023-10-02 22:18:35.257000+00:00,,wholetone,swapped,shifted,shifted,3,20.0,No,speakers on monitor (laptop),,English,,SONA for course credit,,No,Male,,5.0,0,No,,Agree,Strongly Agree,hearing and paying close attention the melodies to see if there is any change ,2023-10-02 18:37:29,46199,True,0,0,0,0,1365,1,0,strictly proper,0,1,0,6,0,6,0,3,15,4,24,1,0,False,6,0,0,0,0.3333333333333333,1,2,0.3149724489777975,0.3149724489777975,0.3149724489777975,0.3149724489777976,12,1,2,7,3,4,False,True,6,0.8269933431326992,1365,1,0,0,0,3,18,1,1,2,4,6,8.0,12,12,12,0,,0,2 2 2 2 2 2,1,1.71193772834421e-33,1,1,0.3149724489777976,3.5,0,0,0,0,6,12,S6-21,S6-21,0,5,200,200,0,0,0,0,0,1,0,0,0,"0,2,4,6,8,10",12-1365,"0,2,4,6,8,10",12-1365,"0,4,8,12,16,20",24-1118481
68,203,2523.400000002235,"[A] option 1, [L] option 2, [G] neither",71,choice,html-keyboard-response,43,99417,0.0-43.0,neither,high,G,-1,"['swapped', 'shifted']",2 4 2 6 12 6 8 14 10 12 4 14 4 12 14 12,2 4 2 6 12 6 8 14 9 12 4 14 4 12 14 12,2 4 2 6 12 6 8 10 14 12 4 14 4 12 14 12,-1,31,False,ATON0007,46199,5,2023-10-02 22:26:50.611000+00:00,,wholetone,swapped,shifted,neither,3,20.0,No,speakers on monitor (laptop),,English,,SONA for course credit,,No,Male,,5.0,0,No,,Agree,Strongly Agree,hearing and paying close attention the melodies to see if there is any change ,2023-10-02 18:37:29,46199,True,0,0,0,0,1365,1,0,strictly proper,0,1,0,6,0,6,0,3,15,4,24,1,0,False,6,0,0,0,0.3333333333333333,1,2,0.3149724489777975,0.3149724489777975,0.3149724489777975,0.3149724489777976,12,1,2,7,3,4,False,True,6,0.8269933431326992,1365,1,0,0,0,3,18,1,1,2,4,6,8.0,12,12,12,0,,0,2 2 2 2 2 2,1,1.71193772834421e-33,1,1,0.3149724489777976,3.5,0,0,0,0,6,12,S6-21,S6-21,0,5,200,200,0,0,0,0,0,1,0,0,0,"0,2,4,6,8,10",12-1365,"0,2,4,6,8,10",12-1365,"0,4,8,12,16,20",24-1118481
69,205,376.70000000298023,"[A] option 1, [L] option 2, [G] neither",71,choice,html-keyboard-response,65,144532,0.0-65.0,neither,high,G,-3,"['shifted', 'swapped']",2 4 2 6 2 12 14 10 2 4 14 12 4 8 14 2,2 4 2 6 2 12 14 10 3 4 14 12 4 8 14 2,2 4 2 6 2 12 14 2 10 4 14 12 4 8 14 2,1,51,False,ATON0007,46199,5,2023-10-02 22:26:50.611000+00:00,,wholetone,shifted,swapped,neither,3,20.0,No,speakers on monitor (laptop),,English,,SONA for course credit,,No,Male,,5.0,0,No,,Agree,Strongly Agree,hearing and paying close attention the melodies to see if there is any change ,2023-10-02 18:37:29,46199,True,0,0,0,0,1365,1,0,strictly proper,0,1,0,6,0,6,0,3,15,4,24,1,0,False,6,0,0,0,0.3333333333333333,1,2,0.3149724489777975,0.3149724489777975,0.3149724489777975,0.3149724489777976,12,1,2,7,3,4,False,True,6,0.8269933431326992,1365,1,0,0,0,3,18,1,1,2,4,6,8.0,12,12,12,0,,0,2 2 2 2 2 2,1,1.71193772834421e-33,1,1,0.3149724489777976,3.5,0,0,0,0,6,12,S6-21,S6-21,0,5,200,200,0,0,0,0,0,1,0,0,0,"0,2,4,6,8,10",12-1365,"0,2,4,6,8,10",12-1365,"0,4,8,12,16,20",24-1118481
70,208,391.30000000074506,"[A] option 1, [L] option 2, [G] neither",65,choice,html-keyboard-response,109,239633,0.0-109.0,1st,high,A,1,"['swapped', 'shifted']",2 8 10 14 6 10 6 10 14 2 4 2 8 12 8 4,2 8 10 14 6 10 6 9 14 2 4 2 8 12 8 4,2 8 10 14 6 10 6 14 10 2 4 2 8 12 8 4,-1,91,False,ATON0007,46199,5,2023-10-02 22:26:50.611000+00:00,,wholetone,swapped,shifted,swapped,3,20.0,No,speakers on monitor (laptop),,English,,SONA for course credit,,No,Male,,5.0,0,No,,Agree,Strongly Agree,hearing and paying close attention the melodies to see if there is any change ,2023-10-02 18:37:29,46199,True,0,0,0,0,1365,1,0,strictly proper,0,1,0,6,0,6,0,3,15,4,24,1,0,False,6,0,0,0,0.3333333333333333,1,2,0.3149724489777975,0.3149724489777975,0.3149724489777975,0.3149724489777976,12,1,2,7,3,4,False,True,6,0.8269933431326992,1365,1,0,0,0,3,18,1,1,2,4,6,8.0,12,12,12,0,,0,2 2 2 2 2 2,1,1.71193772834421e-33,1,1,0.3149724489777976,3.5,0,0,0,0,6,12,S6-21,S6-21,0,5,200,200,0,0,0,0,0,1,0,0,0,"0,2,4,6,8,10",12-1365,"0,2,4,6,8,10",12-1365,"0,4,8,12,16,20",24-1118481
71,123,2860.300000000745,"[A] option 1, [L] option 2, [G] neither",76,choice,html-keyboard-response,49,169353,0.0-49.0,2nd,high,L,-2,"['shifted', 'swapped']",-3 1 3 1 7 3 -1 5 3 -1 1 7 5 7 1 9,-3 1 3 1 7 3 -1 5 2 -1 1 7 5 7 1 9,-3 1 3 1 7 3 -1 3 5 -1 1 7 5 7 1 9,-1,31,False,ATON0007,46199,1,2023-10-02 21:52:28.613000+00:00,,wholetone,shifted,swapped,swapped,3,20.0,No,speakers on monitor (laptop),,English,,SONA for course credit,,No,Male,,5.0,0,No,,Agree,Strongly Agree,hearing and paying close attention the melodies to see if there is any change ,2023-10-02 18:37:29,46199,True,0,0,0,0,1365,1,0,strictly proper,0,1,0,6,0,6,0,3,15,4,24,1,0,False,6,0,0,0,0.3333333333333333,1,2,0.3149724489777975,0.3149724489777975,0.3149724489777975,0.3149724489777976,12,1,2,7,3,4,False,True,6,0.8269933431326992,1365,1,0,0,0,3,18,1,1,2,4,6,8.0,12,12,12,0,,0,2 2 2 2 2 2,1,1.71193772834421e-33,1,1,0.3149724489777976,3.5,0,0,0,0,6,12,S6-21,S6-21,0,5,200,200,0,0,0,0,0,1,0,0,0,"0,2,4,6,8,10",12-1365,"0,2,4,6,8,10",12-1365,"0,4,8,12,16,20",24-1118481
72,211,1931.6000000014901,"[A] option 1, [L] option 2, [G] neither",76,choice,html-keyboard-response,142,309582,0.0-142.0,2nd,high,L,-2,"['shifted', 'swapped']",6 10 6 10 14 4 2 10 8 12 10 12 6 10 14 2,6 10 6 10 14 4 2 9 8 12 10 12 6 10 14 2,6 10 6 10 14 4 2 8 10 12 10 12 6 10 14 2,-1,121,False,ATON0007,46199,5,2023-10-02 22:26:50.611000+00:00,,wholetone,shifted,swapped,swapped,3,20.0,No,speakers on monitor (laptop),,English,,SONA for course credit,,No,Male,,5.0,0,No,,Agree,Strongly Agree,hearing and paying close attention the melodies to see if there is any change ,2023-10-02 18:37:29,46199,True,0,0,0,0,1365,1,0,strictly proper,0,1,0,6,0,6,0,3,15,4,24,1,0,False,6,0,0,0,0.3333333333333333,1,2,0.3149724489777975,0.3149724489777975,0.3149724489777975,0.3149724489777976,12,1,2,7,3,4,False,True,6,0.8269933431326992,1365,1,0,0,0,3,18,1,1,2,4,6,8.0,12,12,12,0,,0,2 2 2 2 2 2,1,1.71193772834421e-33,1,1,0.3149724489777976,3.5,0,0,0,0,6,12,S6-21,S6-21,0,5,200,200,0,0,0,0,0,1,0,0,0,"0,2,4,6,8,10",12-1365,"0,2,4,6,8,10",12-1365,"0,4,8,12,16,20",24-1118481
73,212,3309.60000000149,"[A] option 1, [L] option 2, [G] neither",65,choice,html-keyboard-response,153,335510,0.0-153.0,1st,high,A,-1,"['swapped', 'shifted']",12 6 12 14 6 4 12 10 8 2 8 6 2 8 2 6,12 6 12 14 6 4 12 11 8 2 8 6 2 8 2 6,12 6 12 14 6 4 12 8 10 2 8 6 2 8 2 6,1,131,False,ATON0007,46199,5,2023-10-02 22:26:50.611000+00:00,,wholetone,swapped,shifted,swapped,3,20.0,No,speakers on monitor (laptop),,English,,SONA for course credit,,No,Male,,5.0,0,No,,Agree,Strongly Agree,hearing and paying close attention the melodies to see if there is any change ,2023-10-02 18:37:29,46199,True,0,0,0,0,1365,1,0,strictly proper,0,1,0,6,0,6,0,3,15,4,24,1,0,False,6,0,0,0,0.3333333333333333,1,2,0.3149724489777975,0.3149724489777975,0.3149724489777975,0.3149724489777976,12,1,2,7,3,4,False,True,6,0.8269933431326992,1365,1,0,0,0,3,18,1,1,2,4,6,8.0,12,12,12,0,,0,2 2 2 2 2 2,1,1.71193772834421e-33,1,1,0.3149724489777976,3.5,0,0,0,0,6,12,S6-21,S6-21,0,5,200,200,0,0,0,0,0,1,0,0,0,"0,2,4,6,8,10",12-1365,"0,2,4,6,8,10",12-1365,"0,4,8,12,16,20",24-1118481
74,213,504.80000000074506,"[A] option 1, [L] option 2, [G] neither",76,choice,html-keyboard-response,164,358320,0.0-164.0,2nd,high,L,-3,"['swapped', 'shifted']",6 8 14 8 12 14 8 2 4 12 8 10 2 12 14 2,6 8 14 8 12 14 8 2 5 12 8 10 2 12 14 2,6 8 14 8 12 14 8 4 2 12 8 10 2 12 14 2,1,141,False,ATON0007,46199,5,2023-10-02 22:26:50.611000+00:00,,wholetone,swapped,shifted,shifted,3,20.0,No,speakers on monitor (laptop),,English,,SONA for course credit,,No,Male,,5.0,0,No,,Agree,Strongly Agree,hearing and paying close attention the melodies to see if there is any change ,2023-10-02 18:37:29,46199,True,0,0,0,0,1365,1,0,strictly proper,0,1,0,6,0,6,0,3,15,4,24,1,0,False,6,0,0,0,0.3333333333333333,1,2,0.3149724489777975,0.3149724489777975,0.3149724489777975,0.3149724489777976,12,1,2,7,3,4,False,True,6,0.8269933431326992,1365,1,0,0,0,3,18,1,1,2,4,6,8.0,12,12,12,0,,0,2 2 2 2 2 2,1,1.71193772834421e-33,1,1,0.3149724489777976,3.5,0,0,0,0,6,12,S6-21,S6-21,0,5,200,200,0,0,0,0,0,1,0,0,0,"0,2,4,6,8,10",12-1365,"0,2,4,6,8,10",12-1365,"0,4,8,12,16,20",24-1118481
75,214,2399.0,"[A] option 1, [L] option 2, [G] neither",65,choice,html-keyboard-response,175,383021,0.0-175.0,1st,high,A,-2,"['swapped', 'shifted']",14 8 6 8 6 2 4 12 10 6 10 4 12 6 8 10,14 8 6 8 6 2 4 12 9 6 10 4 12 6 8 10,14 8 6 8 6 2 4 10 12 6 10 4 12 6 8 10,-1,151,False,ATON0007,46199,5,2023-10-02 22:26:50.611000+00:00,,wholetone,swapped,shifted,swapped,3,20.0,No,speakers on monitor (laptop),,English,,SONA for course credit,,No,Male,,5.0,0,No,,Agree,Strongly Agree,hearing and paying close attention the melodies to see if there is any change ,2023-10-02 18:37:29,46199,True,0,0,0,0,1365,1,0,strictly proper,0,1,0,6,0,6,0,3,15,4,24,1,0,False,6,0,0,0,0.3333333333333333,1,2,0.3149724489777975,0.3149724489777975,0.3149724489777975,0.3149724489777976,12,1,2,7,3,4,False,True,6,0.8269933431326992,1365,1,0,0,0,3,18,1,1,2,4,6,8.0,12,12,12,0,,0,2 2 2 2 2 2,1,1.71193772834421e-33,1,1,0.3149724489777976,3.5,0,0,0,0,6,12,S6-21,S6-21,0,5,200,200,0,0,0,0,0,1,0,0,0,"0,2,4,6,8,10",12-1365,"0,2,4,6,8,10",12-1365,"0,4,8,12,16,20",24-1118481
76,216,549.1999999992549,"[A] option 1, [L] option 2, [G] neither",65,choice,html-keyboard-response,197,430724,0.0-197.0,1st,high,A,2,"['shifted', 'swapped']",12 8 4 12 6 14 10 2 12 14 4 10 4 2 14 8,12 8 4 12 6 14 10 2 11 14 4 10 4 2 14 8,12 8 4 12 6 14 10 12 2 14 4 10 4 2 14 8,-1,171,False,ATON0007,46199,5,2023-10-02 22:26:50.611000+00:00,,wholetone,shifted,swapped,shifted,3,20.0,No,speakers on monitor (laptop),,English,,SONA for course credit,,No,Male,,5.0,0,No,,Agree,Strongly Agree,hearing and paying close attention the melodies to see if there is any change ,2023-10-02 18:37:29,46199,True,0,0,0,0,1365,1,0,strictly proper,0,1,0,6,0,6,0,3,15,4,24,1,0,False,6,0,0,0,0.3333333333333333,1,2,0.3149724489777975,0.3149724489777975,0.3149724489777975,0.3149724489777976,12,1,2,7,3,4,False,True,6,0.8269933431326992,1365,1,0,0,0,3,18,1,1,2,4,6,8.0,12,12,12,0,,0,2 2 2 2 2 2,1,1.71193772834421e-33,1,1,0.3149724489777976,3.5,0,0,0,0,6,12,S6-21,S6-21,0,5,200,200,0,0,0,0,0,1,0,0,0,"0,2,4,6,8,10",12-1365,"0,2,4,6,8,10",12-1365,"0,4,8,12,16,20",24-1118481
77,217,3088.400000002235,"[A] option 1, [L] option 2, [G] neither",71,choice,html-keyboard-response,208,456501,0.0-208.0,neither,high,G,0,"['shifted', 'swapped']",6 4 2 6 12 4 14 6 2 10 12 14 8 2 14 4,6 4 2 6 12 4 14 7 2 10 12 14 8 2 14 4,6 4 2 6 12 4 14 2 6 10 12 14 8 2 14 4,1,181,False,ATON0007,46199,5,2023-10-02 22:26:50.611000+00:00,,wholetone,shifted,swapped,neither,3,20.0,No,speakers on monitor (laptop),,English,,SONA for course credit,,No,Male,,5.0,0,No,,Agree,Strongly Agree,hearing and paying close attention the melodies to see if there is any change ,2023-10-02 18:37:29,46199,True,0,0,0,0,1365,1,0,strictly proper,0,1,0,6,0,6,0,3,15,4,24,1,0,False,6,0,0,0,0.3333333333333333,1,2,0.3149724489777975,0.3149724489777975,0.3149724489777975,0.3149724489777976,12,1,2,7,3,4,False,True,6,0.8269933431326992,1365,1,0,0,0,3,18,1,1,2,4,6,8.0,12,12,12,0,,0,2 2 2 2 2 2,1,1.71193772834421e-33,1,1,0.3149724489777976,3.5,0,0,0,0,6,12,S6-21,S6-21,0,5,200,200,0,0,0,0,0,1,0,0,0,"0,2,4,6,8,10",12-1365,"0,2,4,6,8,10",12-1365,"0,4,8,12,16,20",24-1118481
78,219,460.6000000014901,"[A] option 1, [L] option 2, [G] neither",76,choice,html-keyboard-response,10,25706,0.0-10.0,2nd,high,L,-2,"['shifted', 'swapped']",11 9 7 5 -1 3 9 11 1 3 7 1 -1 9 7 9,11 9 7 5 -1 3 9 10 1 3 7 1 -1 9 7 9,11 9 7 5 -1 3 9 1 11 3 7 1 -1 9 7 9,-1,1,False,ATON0007,46199,6,2023-10-02 22:35:00.660000+00:00,,wholetone,shifted,swapped,swapped,3,20.0,No,speakers on monitor (laptop),,English,,SONA for course credit,,No,Male,,5.0,0,No,,Agree,Strongly Agree,hearing and paying close attention the melodies to see if there is any change ,2023-10-02 18:37:29,46199,True,0,0,0,0,1365,1,0,strictly proper,0,1,0,6,0,6,0,3,15,4,24,1,0,False,6,0,0,0,0.3333333333333333,1,2,0.3149724489777975,0.3149724489777975,0.3149724489777975,0.3149724489777976,12,1,2,7,3,4,False,True,6,0.8269933431326992,1365,1,0,0,0,3,18,1,1,2,4,6,8.0,12,12,12,0,,0,2 2 2 2 2 2,1,1.71193772834421e-33,1,1,0.3149724489777976,3.5,0,0,0,0,6,12,S6-21,S6-21,0,5,200,200,0,0,0,0,0,1,0,0,0,"0,2,4,6,8,10",12-1365,"0,2,4,6,8,10",12-1365,"0,4,8,12,16,20",24-1118481
79,220,419.69999999925494,"[A] option 1, [L] option 2, [G] neither",76,choice,html-keyboard-response,21,48462,0.0-21.0,2nd,high,L,-2,"['swapped', 'shifted']",11 9 7 11 3 7 3 5 7 3 1 9 -1 3 11 -1,11 9 7 11 3 7 3 4 7 3 1 9 -1 3 11 -1,11 9 7 11 3 7 3 7 5 3 1 9 -1 3 11 -1,-1,11,False,ATON0007,46199,6,2023-10-02 22:35:00.660000+00:00,,wholetone,swapped,shifted,shifted,3,20.0,No,speakers on monitor (laptop),,English,,SONA for course credit,,No,Male,,5.0,0,No,,Agree,Strongly Agree,hearing and paying close attention the melodies to see if there is any change ,2023-10-02 18:37:29,46199,True,0,0,0,0,1365,1,0,strictly proper,0,1,0,6,0,6,0,3,15,4,24,1,0,False,6,0,0,0,0.3333333333333333,1,2,0.3149724489777975,0.3149724489777975,0.3149724489777975,0.3149724489777976,12,1,2,7,3,4,False,True,6,0.8269933431326992,1365,1,0,0,0,3,18,1,1,2,4,6,8.0,12,12,12,0,,0,2 2 2 2 2 2,1,1.71193772834421e-33,1,1,0.3149724489777976,3.5,0,0,0,0,6,12,S6-21,S6-21,0,5,200,200,0,0,0,0,0,1,0,0,0,"0,2,4,6,8,10",12-1365,"0,2,4,6,8,10",12-1365,"0,4,8,12,16,20",24-1118481
80,221,3709.0,"[A] option 1, [L] option 2, [G] neither",65,choice,html-keyboard-response,32,75413,0.0-32.0,1st,high,A,-1,"['swapped', 'shifted']",1 5 -1 7 9 3 1 7 -1 11 3 9 3 -1 9 5,1 5 -1 7 9 3 1 8 -1 11 3 9 3 -1 9 5,1 5 -1 7 9 3 1 -1 7 11 3 9 3 -1 9 5,1,21,False,ATON0007,46199,6,2023-10-02 22:35:00.660000+00:00,,wholetone,swapped,shifted,swapped,3,20.0,No,speakers on monitor (laptop),,English,,SONA for course credit,,No,Male,,5.0,0,No,,Agree,Strongly Agree,hearing and paying close attention the melodies to see if there is any change ,2023-10-02 18:37:29,46199,True,0,0,0,0,1365,1,0,strictly proper,0,1,0,6,0,6,0,3,15,4,24,1,0,False,6,0,0,0,0.3333333333333333,1,2,0.3149724489777975,0.3149724489777975,0.3149724489777975,0.3149724489777976,12,1,2,7,3,4,False,True,6,0.8269933431326992,1365,1,0,0,0,3,18,1,1,2,4,6,8.0,12,12,12,0,,0,2 2 2 2 2 2,1,1.71193772834421e-33,1,1,0.3149724489777976,3.5,0,0,0,0,6,12,S6-21,S6-21,0,5,200,200,0,0,0,0,0,1,0,0,0,"0,2,4,6,8,10",12-1365,"0,2,4,6,8,10",12-1365,"0,4,8,12,16,20",24-1118481
81,224,2119.10000000149,"[A] option 1, [L] option 2, [G] neither",65,choice,html-keyboard-response,65,156241,0.0-65.0,1st,high,A,3,"['shifted', 'swapped']",9 3 7 11 5 7 -1 7 1 5 11 5 1 9 1 -1,9 3 7 11 5 7 -1 7 2 5 11 5 1 9 1 -1,9 3 7 11 5 7 -1 1 7 5 11 5 1 9 1 -1,1,51,False,ATON0007,46199,6,2023-10-02 22:35:00.660000+00:00,,wholetone,shifted,swapped,shifted,3,20.0,No,speakers on monitor (laptop),,English,,SONA for course credit,,No,Male,,5.0,0,No,,Agree,Strongly Agree,hearing and paying close attention the melodies to see if there is any change ,2023-10-02 18:37:29,46199,True,0,0,0,0,1365,1,0,strictly proper,0,1,0,6,0,6,0,3,15,4,24,1,0,False,6,0,0,0,0.3333333333333333,1,2,0.3149724489777975,0.3149724489777975,0.3149724489777975,0.3149724489777976,12,1,2,7,3,4,False,True,6,0.8269933431326992,1365,1,0,0,0,3,18,1,1,2,4,6,8.0,12,12,12,0,,0,2 2 2 2 2 2,1,1.71193772834421e-33,1,1,0.3149724489777976,3.5,0,0,0,0,6,12,S6-21,S6-21,0,5,200,200,0,0,0,0,0,1,0,0,0,"0,2,4,6,8,10",12-1365,"0,2,4,6,8,10",12-1365,"0,4,8,12,16,20",24-1118481
82,226,477.19999999925494,"[A] option 1, [L] option 2, [G] neither",65,choice,html-keyboard-response,87,202078,0.0-87.0,1st,high,A,0,"['swapped', 'shifted']",11 5 -1 7 9 1 9 -1 3 7 9 -1 1 7 9 -1,11 5 -1 7 9 1 9 0 3 7 9 -1 1 7 9 -1,11 5 -1 7 9 1 9 3 -1 7 9 -1 1 7 9 -1,1,71,False,ATON0007,46199,6,2023-10-02 22:35:00.660000+00:00,,wholetone,swapped,shifted,swapped,3,20.0,No,speakers on monitor (laptop),,English,,SONA for course credit,,No,Male,,5.0,0,No,,Agree,Strongly Agree,hearing and paying close attention the melodies to see if there is any change ,2023-10-02 18:37:29,46199,True,0,0,0,0,1365,1,0,strictly proper,0,1,0,6,0,6,0,3,15,4,24,1,0,False,6,0,0,0,0.3333333333333333,1,2,0.3149724489777975,0.3149724489777975,0.3149724489777975,0.3149724489777976,12,1,2,7,3,4,False,True,6,0.8269933431326992,1365,1,0,0,0,3,18,1,1,2,4,6,8.0,12,12,12,0,,0,2 2 2 2 2 2,1,1.71193772834421e-33,1,1,0.3149724489777976,3.5,0,0,0,0,6,12,S6-21,S6-21,0,5,200,200,0,0,0,0,0,1,0,0,0,"0,2,4,6,8,10",12-1365,"0,2,4,6,8,10",12-1365,"0,4,8,12,16,20",24-1118481
83,228,1579.6000000014901,"[A] option 1, [L] option 2, [G] neither",65,choice,html-keyboard-response,109,249656,0.0-109.0,1st,high,A,2,"['swapped', 'shifted']",1 -1 3 11 9 5 -1 5 1 9 5 -1 9 7 -1 9,1 -1 3 11 9 5 -1 5 2 9 5 -1 9 7 -1 9,1 -1 3 11 9 5 -1 1 5 9 5 -1 9 7 -1 9,1,91,False,ATON0007,46199,6,2023-10-02 22:35:00.660000+00:00,,wholetone,swapped,shifted,swapped,3,20.0,No,speakers on monitor (laptop),,English,,SONA for course credit,,No,Male,,5.0,0,No,,Agree,Strongly Agree,hearing and paying close attention the melodies to see if there is any change ,2023-10-02 18:37:29,46199,True,0,0,0,0,1365,1,0,strictly proper,0,1,0,6,0,6,0,3,15,4,24,1,0,False,6,0,0,0,0.3333333333333333,1,2,0.3149724489777975,0.3149724489777975,0.3149724489777975,0.3149724489777976,12,1,2,7,3,4,False,True,6,0.8269933431326992,1365,1,0,0,0,3,18,1,1,2,4,6,8.0,12,12,12,0,,0,2 2 2 2 2 2,1,1.71193772834421e-33,1,1,0.3149724489777976,3.5,0,0,0,0,6,12,S6-21,S6-21,0,5,200,200,0,0,0,0,0,1,0,0,0,"0,2,4,6,8,10",12-1365,"0,2,4,6,8,10",12-1365,"0,4,8,12,16,20",24-1118481
84,230,2410.699999999255,"[A] option 1, [L] option 2, [G] neither",76,choice,html-keyboard-response,131,297556,0.0-131.0,2nd,high,L,-3,"['swapped', 'shifted']",3 1 7 -1 1 9 -1 7 5 1 3 -1 9 11 -1 9,3 1 7 -1 1 9 -1 7 4 1 3 -1 9 11 -1 9,3 1 7 -1 1 9 -1 5 7 1 3 -1 9 11 -1 9,-1,111,False,ATON0007,46199,6,2023-10-02 22:35:00.660000+00:00,,wholetone,swapped,shifted,shifted,3,20.0,No,speakers on monitor (laptop),,English,,SONA for course credit,,No,Male,,5.0,0,No,,Agree,Strongly Agree,hearing and paying close attention the melodies to see if there is any change ,2023-10-02 18:37:29,46199,True,0,0,0,0,1365,1,0,strictly proper,0,1,0,6,0,6,0,3,15,4,24,1,0,False,6,0,0,0,0.3333333333333333,1,2,0.3149724489777975,0.3149724489777975,0.3149724489777975,0.3149724489777976,12,1,2,7,3,4,False,True,6,0.8269933431326992,1365,1,0,0,0,3,18,1,1,2,4,6,8.0,12,12,12,0,,0,2 2 2 2 2 2,1,1.71193772834421e-33,1,1,0.3149724489777976,3.5,0,0,0,0,6,12,S6-21,S6-21,0,5,200,200,0,0,0,0,0,1,0,0,0,"0,2,4,6,8,10",12-1365,"0,2,4,6,8,10",12-1365,"0,4,8,12,16,20",24-1118481
85,233,420.30000000074506,"[A] option 1, [L] option 2, [G] neither",65,choice,html-keyboard-response,164,366885,0.0-164.0,1st,high,A,1,"['shifted', 'swapped']",9 11 7 1 3 11 1 5 7 11 9 3 11 1 5 7,9 11 7 1 3 11 1 5 8 11 9 3 11 1 5 7,9 11 7 1 3 11 1 7 5 11 9 3 11 1 5 7,1,141,False,ATON0007,46199,6,2023-10-02 22:35:00.660000+00:00,,wholetone,shifted,swapped,shifted,3,20.0,No,speakers on monitor (laptop),,English,,SONA for course credit,,No,Male,,5.0,0,No,,Agree,Strongly Agree,hearing and paying close attention the melodies to see if there is any change ,2023-10-02 18:37:29,46199,True,0,0,0,0,1365,1,0,strictly proper,0,1,0,6,0,6,0,3,15,4,24,1,0,False,6,0,0,0,0.3333333333333333,1,2,0.3149724489777975,0.3149724489777975,0.3149724489777975,0.3149724489777976,12,1,2,7,3,4,False,True,6,0.8269933431326992,1365,1,0,0,0,3,18,1,1,2,4,6,8.0,12,12,12,0,,0,2 2 2 2 2 2,1,1.71193772834421e-33,1,1,0.3149724489777976,3.5,0,0,0,0,6,12,S6-21,S6-21,0,5,200,200,0,0,0,0,0,1,0,0,0,"0,2,4,6,8,10",12-1365,"0,2,4,6,8,10",12-1365,"0,4,8,12,16,20",24-1118481
86,237,362.19999999925494,"[A] option 1, [L] option 2, [G] neither",76,choice,html-keyboard-response,208,459887,0.0-208.0,2nd,high,L,-1,"['shifted', 'swapped']",-1 5 3 7 11 5 1 5 11 -1 9 7 -1 9 1 11,-1 5 3 7 11 5 1 5 10 -1 9 7 -1 9 1 11,-1 5 3 7 11 5 1 11 5 -1 9 7 -1 9 1 11,-1,181,False,ATON0007,46199,6,2023-10-02 22:35:00.660000+00:00,,wholetone,shifted,swapped,swapped,3,20.0,No,speakers on monitor (laptop),,English,,SONA for course credit,,No,Male,,5.0,0,No,,Agree,Strongly Agree,hearing and paying close attention the melodies to see if there is any change ,2023-10-02 18:37:29,46199,True,0,0,0,0,1365,1,0,strictly proper,0,1,0,6,0,6,0,3,15,4,24,1,0,False,6,0,0,0,0.3333333333333333,1,2,0.3149724489777975,0.3149724489777975,0.3149724489777975,0.3149724489777976,12,1,2,7,3,4,False,True,6,0.8269933431326992,1365,1,0,0,0,3,18,1,1,2,4,6,8.0,12,12,12,0,,0,2 2 2 2 2 2,1,1.71193772834421e-33,1,1,0.3149724489777976,3.5,0,0,0,0,6,12,S6-21,S6-21,0,5,200,200,0,0,0,0,0,1,0,0,0,"0,2,4,6,8,10",12-1365,"0,2,4,6,8,10",12-1365,"0,4,8,12,16,20",24-1118481
87,238,3154.10000000149,"[A] option 1, [L] option 2, [G] neither",76,choice,html-keyboard-response,219,485957,0.0-219.0,2nd,high,L,-3,"['shifted', 'swapped']",9 11 9 5 9 11 3 1 7 9 5 9 -1 3 11 1,9 11 9 5 9 11 3 0 7 9 5 9 -1 3 11 1,9 11 9 5 9 11 3 7 1 9 5 9 -1 3 11 1,-1,191,False,ATON0007,46199,6,2023-10-02 22:35:00.660000+00:00,,wholetone,shifted,swapped,swapped,3,20.0,No,speakers on monitor (laptop),,English,,SONA for course credit,,No,Male,,5.0,0,No,,Agree,Strongly Agree,hearing and paying close attention the melodies to see if there is any change ,2023-10-02 18:37:29,46199,True,0,0,0,0,1365,1,0,strictly proper,0,1,0,6,0,6,0,3,15,4,24,1,0,False,6,0,0,0,0.3333333333333333,1,2,0.3149724489777975,0.3149724489777975,0.3149724489777975,0.3149724489777976,12,1,2,7,3,4,False,True,6,0.8269933431326992,1365,1,0,0,0,3,18,1,1,2,4,6,8.0,12,12,12,0,,0,2 2 2 2 2 2,1,1.71193772834421e-33,1,1,0.3149724489777976,3.5,0,0,0,0,6,12,S6-21,S6-21,0,5,200,200,0,0,0,0,0,1,0,0,0,"0,2,4,6,8,10",12-1365,"0,2,4,6,8,10",12-1365,"0,4,8,12,16,20",24-1118481
88,188,1752.300000000745,"[A] option 1, [L] option 2, [G] neither",76,choice,html-keyboard-response,98,230606,0.0-98.0,2nd,high,L,-1,"['swapped', 'shifted']",5 3 5 11 9 15 7 5 3 13 5 15 7 11 5 11,5 3 5 11 9 15 7 4 3 13 5 15 7 11 5 11,5 3 5 11 9 15 7 3 5 13 5 15 7 11 5 11,-1,81,False,ATON0007,46199,4,2023-10-02 22:18:35.257000+00:00,,wholetone,swapped,shifted,shifted,3,20.0,No,speakers on monitor (laptop),,English,,SONA for course credit,,No,Male,,5.0,0,No,,Agree,Strongly Agree,hearing and paying close attention the melodies to see if there is any change ,2023-10-02 18:37:29,46199,True,0,0,0,0,1365,1,0,strictly proper,0,1,0,6,0,6,0,3,15,4,24,1,0,False,6,0,0,0,0.3333333333333333,1,2,0.3149724489777975,0.3149724489777975,0.3149724489777975,0.3149724489777976,12,1,2,7,3,4,False,True,6,0.8269933431326992,1365,1,0,0,0,3,18,1,1,2,4,6,8.0,12,12,12,0,,0,2 2 2 2 2 2,1,1.71193772834421e-33,1,1,0.3149724489777976,3.5,0,0,0,0,6,12,S6-21,S6-21,0,5,200,200,0,0,0,0,0,1,0,0,0,"0,2,4,6,8,10",12-1365,"0,2,4,6,8,10",12-1365,"0,4,8,12,16,20",24-1118481
89,186,1330.300000000745,"[A] option 1, [L] option 2, [G] neither",76,choice,html-keyboard-response,76,182499,0.0-76.0,2nd,high,L,-2,"['shifted', 'swapped']",15 11 15 13 5 3 7 3 11 7 15 9 15 13 15 5,15 11 15 13 5 3 7 4 11 7 15 9 15 13 15 5,15 11 15 13 5 3 7 11 3 7 15 9 15 13 15 5,1,61,False,ATON0007,46199,4,2023-10-02 22:18:35.257000+00:00,,wholetone,shifted,swapped,swapped,3,20.0,No,speakers on monitor (laptop),,English,,SONA for course credit,,No,Male,,5.0,0,No,,Agree,Strongly Agree,hearing and paying close attention the melodies to see if there is any change ,2023-10-02 18:37:29,46199,True,0,0,0,0,1365,1,0,strictly proper,0,1,0,6,0,6,0,3,15,4,24,1,0,False,6,0,0,0,0.3333333333333333,1,2,0.3149724489777975,0.3149724489777975,0.3149724489777975,0.3149724489777976,12,1,2,7,3,4,False,True,6,0.8269933431326992,1365,1,0,0,0,3,18,1,1,2,4,6,8.0,12,12,12,0,,0,2 2 2 2 2 2,1,1.71193772834421e-33,1,1,0.3149724489777976,3.5,0,0,0,0,6,12,S6-21,S6-21,0,5,200,200,0,0,0,0,0,1,0,0,0,"0,2,4,6,8,10",12-1365,"0,2,4,6,8,10",12-1365,"0,4,8,12,16,20",24-1118481
90,210,372.5,"[A] option 1, [L] option 2, [G] neither",65,choice,html-keyboard-response,131,285285,0.0-131.0,1st,high,A,3,"['shifted', 'swapped']",8 12 14 12 10 6 8 14 10 4 12 6 4 2 8 4,8 12 14 12 10 6 8 15 10 4 12 6 4 2 8 4,8 12 14 12 10 6 8 10 14 4 12 6 4 2 8 4,1,111,False,ATON0007,46199,5,2023-10-02 22:26:50.611000+00:00,,wholetone,shifted,swapped,shifted,3,20.0,No,speakers on monitor (laptop),,English,,SONA for course credit,,No,Male,,5.0,0,No,,Agree,Strongly Agree,hearing and paying close attention the melodies to see if there is any change ,2023-10-02 18:37:29,46199,True,0,0,0,0,1365,1,0,strictly proper,0,1,0,6,0,6,0,3,15,4,24,1,0,False,6,0,0,0,0.3333333333333333,1,2,0.3149724489777975,0.3149724489777975,0.3149724489777975,0.3149724489777976,12,1,2,7,3,4,False,True,6,0.8269933431326992,1365,1,0,0,0,3,18,1,1,2,4,6,8.0,12,12,12,0,,0,2 2 2 2 2 2,1,1.71193772834421e-33,1,1,0.3149724489777976,3.5,0,0,0,0,6,12,S6-21,S6-21,0,5,200,200,0,0,0,0,0,1,0,0,0,"0,2,4,6,8,10",12-1365,"0,2,4,6,8,10",12-1365,"0,4,8,12,16,20",24-1118481
91,125,2829.60000000149,"[A] option 1, [L] option 2, [G] neither",76,choice,html-keyboard-response,71,221984,0.0-71.0,2nd,high,L,1,"['swapped', 'shifted']",-1 5 1 9 7 3 5 3 -1 9 -1 -3 9 7 -1 1,-1 5 1 9 7 3 5 2 -1 9 -1 -3 9 7 -1 1,-1 5 1 9 7 3 5 -1 3 9 -1 -3 9 7 -1 1,-1,51,False,ATON0007,46199,1,2023-10-02 21:52:28.613000+00:00,,wholetone,swapped,shifted,shifted,3,20.0,No,speakers on monitor (laptop),,English,,SONA for course credit,,No,Male,,5.0,0,No,,Agree,Strongly Agree,hearing and paying close attention the melodies to see if there is any change ,2023-10-02 18:37:29,46199,True,0,0,0,0,1365,1,0,strictly proper,0,1,0,6,0,6,0,3,15,4,24,1,0,False,6,0,0,0,0.3333333333333333,1,2,0.3149724489777975,0.3149724489777975,0.3149724489777975,0.3149724489777976,12,1,2,7,3,4,False,True,6,0.8269933431326992,1365,1,0,0,0,3,18,1,1,2,4,6,8.0,12,12,12,0,,0,2 2 2 2 2 2,1,1.71193772834421e-33,1,1,0.3149724489777976,3.5,0,0,0,0,6,12,S6-21,S6-21,0,5,200,200,0,0,0,0,0,1,0,0,0,"0,2,4,6,8,10",12-1365,"0,2,4,6,8,10",12-1365,"0,4,8,12,16,20",24-1118481
92,181,2649.5,"[A] option 1, [L] option 2, [G] neither",71,choice,html-keyboard-response,21,54288,0.0-21.0,neither,high,G,1,"['swapped', 'shifted']",7 3 9 13 11 15 7 11 9 15 9 11 9 11 5 9,7 3 9 13 11 15 7 11 8 15 9 11 9 11 5 9,7 3 9 13 11 15 7 9 11 15 9 11 9 11 5 9,-1,11,False,ATON0007,46199,4,2023-10-02 22:18:35.257000+00:00,,wholetone,swapped,shifted,neither,3,20.0,No,speakers on monitor (laptop),,English,,SONA for course credit,,No,Male,,5.0,0,No,,Agree,Strongly Agree,hearing and paying close attention the melodies to see if there is any change ,2023-10-02 18:37:29,46199,True,0,0,0,0,1365,1,0,strictly proper,0,1,0,6,0,6,0,3,15,4,24,1,0,False,6,0,0,0,0.3333333333333333,1,2,0.3149724489777975,0.3149724489777975,0.3149724489777975,0.3149724489777976,12,1,2,7,3,4,False,True,6,0.8269933431326992,1365,1,0,0,0,3,18,1,1,2,4,6,8.0,12,12,12,0,,0,2 2 2 2 2 2,1,1.71193772834421e-33,1,1,0.3149724489777976,3.5,0,0,0,0,6,12,S6-21,S6-21,0,5,200,200,0,0,0,0,0,1,0,0,0,"0,2,4,6,8,10",12-1365,"0,2,4,6,8,10",12-1365,"0,4,8,12,16,20",24-1118481
93,128,1465.9000000022352,"[A] option 1, [L] option 2, [G] neither",76,choice,html-keyboard-response,104,297888,0.0-104.0,2nd,high,L,-2,"['shifted', 'swapped']",-1 -3 -1 -3 -1 3 9 7 3 1 -3 9 5 -3 1 5,-1 -3 -1 -3 -1 3 9 6 3 1 -3 9 5 -3 1 5,-1 -3 -1 -3 -1 3 9 3 7 1 -3 9 5 -3 1 5,-1,81,False,ATON0007,46199,1,2023-10-02 21:52:28.613000+00:00,,wholetone,shifted,swapped,swapped,3,20.0,No,speakers on monitor (laptop),,English,,SONA for course credit,,No,Male,,5.0,0,No,,Agree,Strongly Agree,hearing and paying close attention the melodies to see if there is any change ,2023-10-02 18:37:29,46199,True,0,0,0,0,1365,1,0,strictly proper,0,1,0,6,0,6,0,3,15,4,24,1,0,False,6,0,0,0,0.3333333333333333,1,2,0.3149724489777975,0.3149724489777975,0.3149724489777975,0.3149724489777976,12,1,2,7,3,4,False,True,6,0.8269933431326992,1365,1,0,0,0,3,18,1,1,2,4,6,8.0,12,12,12,0,,0,2 2 2 2 2 2,1,1.71193772834421e-33,1,1,0.3149724489777976,3.5,0,0,0,0,6,12,S6-21,S6-21,0,5,200,200,0,0,0,0,0,1,0,0,0,"0,2,4,6,8,10",12-1365,"0,2,4,6,8,10",12-1365,"0,4,8,12,16,20",24-1118481
94,129,5511.400000002235,"[A] option 1, [L] option 2, [G] neither",76,choice,html-keyboard-response,115,327215,0.0-115.0,2nd,high,L,0,"['shifted', 'swapped']",9 3 7 9 5 3 5 -1 1 5 1 3 5 7 9 5,9 3 7 9 5 3 5 0 1 5 1 3 5 7 9 5,9 3 7 9 5 3 5 1 -1 5 1 3 5 7 9 5,1,91,False,ATON0007,46199,1,2023-10-02 21:52:28.613000+00:00,,wholetone,shifted,swapped,swapped,3,20.0,No,speakers on monitor (laptop),,English,,SONA for course credit,,No,Male,,5.0,0,No,,Agree,Strongly Agree,hearing and paying close attention the melodies to see if there is any change ,2023-10-02 18:37:29,46199,True,0,0,0,0,1365,1,0,strictly proper,0,1,0,6,0,6,0,3,15,4,24,1,0,False,6,0,0,0,0.3333333333333333,1,2,0.3149724489777975,0.3149724489777975,0.3149724489777975,0.3149724489777976,12,1,2,7,3,4,False,True,6,0.8269933431326992,1365,1,0,0,0,3,18,1,1,2,4,6,8.0,12,12,12,0,,0,2 2 2 2 2 2,1,1.71193772834421e-33,1,1,0.3149724489777976,3.5,0,0,0,0,6,12,S6-21,S6-21,0,5,200,200,0,0,0,0,0,1,0,0,0,"0,2,4,6,8,10",12-1365,"0,2,4,6,8,10",12-1365,"0,4,8,12,16,20",24-1118481
95,132,3117.0,"[A] option 1, [L] option 2, [G] neither",71,choice,html-keyboard-response,148,403812,0.0-148.0,neither,high,G,3,"['shifted', 'swapped']",3 9 7 3 5 7 -1 7 1 9 5 7 1 -3 9 1,3 9 7 3 5 7 -1 7 0 9 5 7 1 -3 9 1,3 9 7 3 5 7 -1 1 7 9 5 7 1 -3 9 1,-1,121,False,ATON0007,46199,1,2023-10-02 21:52:28.613000+00:00,,wholetone,shifted,swapped,neither,3,20.0,No,speakers on monitor (laptop),,English,,SONA for course credit,,No,Male,,5.0,0,No,,Agree,Strongly Agree,hearing and paying close attention the melodies to see if there is any change ,2023-10-02 18:37:29,46199,True,0,0,0,0,1365,1,0,strictly proper,0,1,0,6,0,6,0,3,15,4,24,1,0,False,6,0,0,0,0.3333333333333333,1,2,0.3149724489777975,0.3149724489777975,0.3149724489777975,0.3149724489777976,12,1,2,7,3,4,False,True,6,0.8269933431326992,1365,1,0,0,0,3,18,1,1,2,4,6,8.0,12,12,12,0,,0,2 2 2 2 2 2,1,1.71193772834421e-33,1,1,0.3149724489777976,3.5,0,0,0,0,6,12,S6-21,S6-21,0,5,200,200,0,0,0,0,0,1,0,0,0,"0,2,4,6,8,10",12-1365,"0,2,4,6,8,10",12-1365,"0,4,8,12,16,20",24-1118481
