,subject,set,understood task,response,button_bias_Z,decoy_NN_count,decoy_NN_count_correct,decoy_binom,rt set,rt shifted,rt swapped,rt neither,key_r,I7_count,I5_count,I1_count,I11_count,rt shifted-swapped,rt shifted:swapped,# shifted,# swapped,# neither,# 1st button,# 2nd button,# neither button,# 1st button (task),# 2nd button (task),# neither button (task),# button presses (task),# trials,# button presses,# no_neither_trials,rate shifted,rate swapped,rate neither,rate pressed 1st,rate pressed 2nd,rate pressed neither,rate pressed 1st (task),rate pressed 2nd (task),rate pressed neither (task),rate_NN_shifted,rate_NN_swapped,rate shifted - rate swapped,rate shifted - rate swapped (NN),Unnamed: 0,subject_age,Did this strategy change throughout the task?,How did you listen to the task?,"If you have had musical training, how old were you during this period (i.e., age-range)?",What is your first language?,Did you notice any change in the music? Elaborate,Q15 - Parent Topics,Q15 - Topics,How did you arrive at this experiment?,What is your first language (if other)?,"Did you notice any particular changes in the music? In other words, did you base your discriminations on specific features of the melodies?",subject_gender,How did your strategy change throughout the task?,Would you consider yourself a musical person? (0-10),How many years of formal musical training do you have?,Do you play any instruments (with or without formal training)?,Which instruments do you play (if any)?,I understood the instructions of the task,I found the task difficult,What general strategy (if any) did you use to judge the similarity across the melodies?,RecordedDate,sona
0,SSS0002,0 2 4 7 9,True,BBBBBBBA,-1.7320508075688774,8,7,0.03515625,1619.7524999952875,1345.6650000009686,2660.3000000026077,1819.5974999982864,0.7708181447618913,1.75,2.9375,0.0,0.0,-1314.6350000016391,0.5058320490168964,7.0,1.0,8.0,1.0,7.0,8.0,1.0,7.0,8.0,16.0,16.0,16.0,8.0,0.4375,0.0625,0.5,0.0625,0.4375,0.5,0.0625,0.4375,0.5,0.875,0.125,0.375,0.75,2,19,No,Apple Airpods (earphones),9-17,Other (please specify below):,Tone,,,SONA for course credit,Portuguese,Yes,Female,,7.0,6-8,"Yes, but not so well",Piano,Strongly Agree,Agree,Tone,2020-09-28 19:14:58,39501
1,SSS0004,0 2 4 7 9,True,ABAAAAABABAAA,1.1741905314961962,13,9,0.1334228515625,893.804999999702,513.0700001027435,790.4824999859557,1790.1400001719594,0.7669670533505389,1.3333333333333333,3.0555555555555554,0.0,0.0,-277.41249988321215,0.6490592772286029,9.0,4.0,5.0,10.0,3.0,5.0,10.0,3.0,5.0,18.0,18.0,18.0,13.0,0.5,0.2222222222222222,0.2777777777777778,0.5555555555555556,0.16666666666666666,0.2777777777777778,0.5555555555555556,0.16666666666666666,0.2777777777777778,0.6923076923076923,0.3076923076923077,0.2777777777777778,0.3846153846153846,4,19,No,in-ear,12 I think,Other (please specify below):,"major, minor",,Unknown,SONA for course credit,Chinese,No,Female,,6.0,4-5,"Yes, I do alright",piano,Strongly Agree,Strongly Agree,"pitch changes, patterns",2020-09-28 19:03:24,39632
2,SSS0005,0 2 4 7 9,True,BAAABBABBABAABA,0.8256518824103988,15,13,0.003692626953125,1324.7099999862257,1311.4049999858253,1316.4099999994505,2528.4000000101514,0.8001035979667027,1.625,2.5625,0.0,0.0,-5.005000013625249,0.9961979930161368,13.0,2.0,1.0,8.0,7.0,1.0,8.0,7.0,1.0,16.0,16.0,16.0,15.0,0.8125,0.125,0.0625,0.5,0.4375,0.0625,0.5,0.4375,0.0625,0.8666666666666667,0.13333333333333333,0.6875,0.7333333333333334,5,18,Yes,I used in-ear headphones (airpods),from the age of 8 to 16,English,"yes - sometimes there were notes which stood out, or in some cases it felt more cut off at the end",,Unknown,SONA for course credit,,,Female,,10.0,6-8,"Yes, I do alright","violin, piano",Strongly Agree,Strongly Agree,"I tried to remember patterns and higher notes which stood out. Sometimes the test melody brought images to my mind or made me feel a certain emotion, so I tried to see if I saw the same images or felt the same way when I listened to Option 1 and Option 2. I went between these two strategies throughout the study, but I do not know if a specific block affected that. However, sometimes the notes were closer together or more repetitive, which made it more difficult to judge the similarities.",2020-09-16 13:31:19,39476
3,SSS0006,0 2 4 7 9,True,BABBBABBABAABABAAB,1.5318220762345198,18,17,7.2479248046875e-05,381.4149999525398,372.77500005438924,989.9150000419468,980.354999890551,0.8247738940896,1.5263157894736843,2.0,0.0,0.0,-617.1399999875575,0.37657273608198,17.0,1.0,1.0,8.0,10.0,1.0,8.0,10.0,1.0,19.0,19.0,19.0,18.0,0.8947368421052632,0.05263157894736842,0.05263157894736842,0.42105263157894735,0.5263157894736842,0.05263157894736842,0.42105263157894735,0.5263157894736842,0.05263157894736842,0.9444444444444444,0.05555555555555555,0.8421052631578947,0.8888888888888888,6,18,No,"Headphones, in-ear, Airpods",14-17,6,I based my discriminations on the rhythm and the notes played.,,Unknown,SONA for course credit,,,Female,,7.0,2-3,"Yes, I do alright",Clarinet,Agree,Disagree,I try to look for differences in the notes played or the rhythm of the melody based on my hearing.,2020-09-16 13:31:44,39740
4,SSS0007,0 2 4 7 9,True,BABABABBAAABABBBB,0.9144599137184255,17,14,0.0063629150390625,948.2400000561029,1044.9250000528991,783.40999991633,0.0,0.7994159329650535,1.1764705882352942,2.9411764705882355,0.0,0.0,261.51500013656914,1.3338162650010845,14.0,3.0,0.0,7.0,10.0,0.0,7.0,10.0,0.0,17.0,17.0,17.0,17.0,0.8235294117647058,0.17647058823529413,0.0,0.4117647058823529,0.5882352941176471,0.0,0.4117647058823529,0.5882352941176471,0.0,0.8235294117647058,0.17647058823529413,0.6470588235294117,0.6470588235294117,7,19,No,in ear headphones,12-15,Spanish,pitch of the note ,,Unknown,SONA for course credit,Korean,No,Female,around block 4 is when I memorized the beginning and ending of the test melody to compare to the optional melodies ,2.0,2-3,No,Drum,Strongly Agree,Disagree,I look for at least one melody differences,2020-09-28 19:16:23,39756
5,SSS0008,0 2 4 7 9,True,ABABBAABBBAAABBAA,-0.23662840251096373,17,15,0.0011749267578125,422.6100000087172,419.47500000242144,420.1625000569038,801.6499999212101,0.7915621168966465,1.6111111111111112,3.111111111111111,0.0,0.0,-0.6875000544823706,0.9983637281899521,15.0,2.0,1.0,9.0,8.0,1.0,9.0,8.0,1.0,18.0,18.0,18.0,17.0,0.8333333333333334,0.1111111111111111,0.05555555555555555,0.5,0.4444444444444444,0.05555555555555555,0.5,0.4444444444444444,0.05555555555555555,0.8823529411764706,0.11764705882352941,0.7222222222222223,0.7647058823529411,8,19,No,Bose Headphones sound proof,When in high school I was in a wind orchestra (15-19) and now I am studying Music Business.,Spanish,,,,SONA for course credit,,No,Female,,7.0,4-5,"Yes, I do alright","Clarinet, piano, voice",Strongly Agree,Agree,Repeat it in my head or sing it,2020-09-18 18:57:25,40014
6,SSS0009,0 2 4 7 9,True,AAABAAAABAAAAAB,0.17521916101261575,15,6,0.84912109375,777.9649998992682,329.6174999559298,895.020000054501,0.0,0.7923331272644625,2.2666666666666666,2.2666666666666666,0.0,0.0,-565.4025000985712,0.36827947971649594,6.0,9.0,0.0,12.0,3.0,0.0,12.0,3.0,0.0,15.0,15.0,15.0,15.0,0.4,0.6,0.0,0.8,0.2,0.0,0.8,0.2,0.0,0.4,0.6,-0.19999999999999996,-0.19999999999999996,9,18,No,airpods,14-18,Other (please specify below):,higher or lower notes,,Unknown,SONA for course credit,Chinese,Yes,Female,,7.0,4-5,"Yes, I do alright",piano,Strongly Agree,Agree,listen to the middle sections,2020-09-18 19:46:42,39729
7,SSS0010,0 2 4 7 9,True,ABABBABABB,1.5453665891097952,10,5,0.623046875,1160.6075000315905,1051.9700000304729,4346.184999973513,927.6625000350177,0.7991037108212106,1.5,2.857142857142857,0.0,0.0,-3294.2149999430403,0.2420444596897932,5.0,5.0,4.0,4.0,6.0,4.0,4.0,6.0,4.0,14.0,14.0,14.0,10.0,0.35714285714285715,0.35714285714285715,0.2857142857142857,0.2857142857142857,0.42857142857142855,0.2857142857142857,0.2857142857142857,0.42857142857142855,0.2857142857142857,0.5,0.5,0.0,0.0,10,20,No,in ear earphones,,English,,,,SONA for course credit,,No,Female,,4.0,2-3,No,,Agree,Strongly Agree,int0nations and pitch.,2020-10-19 01:24:30,39556
8,SSS0011,0 2 4 7 9,True,BABABAAAAABBABABABB,1.1962674870701449,19,10,0.5,1265.3400000426918,1370.5325000341982,1002.4850000040606,0.0,0.7774378578434981,1.6842105263157894,3.0,0.0,0.0,368.0475000301376,1.3671351691333504,10.0,9.0,0.0,10.0,9.0,0.0,10.0,9.0,0.0,19.0,19.0,19.0,19.0,0.5263157894736842,0.47368421052631576,0.0,0.5263157894736842,0.47368421052631576,0.0,0.5263157894736842,0.47368421052631576,0.0,0.5263157894736842,0.47368421052631576,0.05263157894736842,0.05263157894736842,11,21,No,air pods ,8-13,English,,,,SONA for course credit,,No,Female,,8.0,2-3,"Yes, I do alright",DRUMS,Agree,Strongly Agree,high vs low ,2020-09-23 15:43:41,37276
9,SSS0012,0 2 4 7 9,True,ABABAAABABBA,1.3533392381794225,12,8,0.19384765625,376.34249999793246,324.54749999847263,622.0825000000186,555.7224999992177,0.7971977344928399,1.5714285714285714,3.0,0.0,0.0,-297.535000001546,0.5217113485726779,8.0,4.0,2.0,7.0,5.0,2.0,7.0,5.0,2.0,14.0,14.0,14.0,12.0,0.5714285714285714,0.2857142857142857,0.14285714285714285,0.5,0.35714285714285715,0.14285714285714285,0.5,0.35714285714285715,0.14285714285714285,0.6666666666666666,0.3333333333333333,0.2857142857142857,0.3333333333333333,12,21,Yes,in ear Apple wired headphones,7-11,Spanish,"It's hard to put into words, but sometimes the melodies just felt different. It was very clear when there was a shift from the test melody",,Unknown,SONA for course credit,Chinese,Yes,Male,Sometimes neither option deviated that far away from the test melody. This made it harder to determine which one was a lot different from the test,4.0,0,No,electronic piano,Strongly Agree,Disagree,I compared the test to the first option. If it sounded really different I knew it was my option,2020-09-28 19:40:50,38684
10,SSS0013,0 2 4 7 9,False,BBBBABAAABABA,0.31399291281137953,13,11,0.01123046875,948.5249999852385,792.359999992419,2254.9724999843165,1421.5200000032783,0.8022598065321312,1.25,2.8125,0.0,0.0,-1462.6124999918975,0.35138344259095394,11.0,2.0,3.0,6.0,7.0,3.0,6.0,7.0,3.0,16.0,16.0,16.0,13.0,0.6875,0.125,0.1875,0.375,0.4375,0.1875,0.375,0.4375,0.1875,0.8461538461538461,0.15384615384615385,0.5625,0.6923076923076923,13,21,No,,,Other (please specify below):,,,,SONA for course credit,Chinese,No,Female,,0.0,0,No,,Neither Agree nor Disagree,Strongly Agree,,2020-09-18 16:28:09,39092
11,SSS0014,0 2 4 7 9,True,AABBBBABBAB,-0.06299407883487115,11,7,0.2744140625,833.9550000091549,475.1950000063516,1012.3175000189804,1989.1350000398234,0.7861694520232476,1.4285714285714286,2.642857142857143,0.0,0.0,-537.1225000126287,0.46941300530460256,7.0,4.0,3.0,4.0,7.0,3.0,4.0,7.0,3.0,14.0,14.0,14.0,11.0,0.5,0.2857142857142857,0.21428571428571427,0.2857142857142857,0.5,0.21428571428571427,0.2857142857142857,0.5,0.21428571428571427,0.6363636363636364,0.36363636363636365,0.2142857142857143,0.2727272727272727,14,19,No,in-ear earbuds,10,English,Pitch changes,,Unknown,SONA for course credit,,Yes,Female,,5.0,4-5,"Yes, I do alright",Piano,Agree,Strongly Agree,I don't have any,2020-09-18 16:58:30,39632
12,SSS0015,0 2 4 7 9,True,BABBBABBBBBBBBB,0.6824195671992894,15,10,0.15087890624999997,951.0050000026822,777.4124999993946,951.0050000026822,1713.352499999106,0.8117239731468052,1.8823529411764706,2.2941176470588234,0.0,0.0,-173.59250000328757,0.8174641563369299,10.0,5.0,2.0,2.0,13.0,2.0,2.0,13.0,2.0,17.0,17.0,17.0,15.0,0.5882352941176471,0.29411764705882354,0.11764705882352941,0.11764705882352941,0.7647058823529411,0.11764705882352941,0.11764705882352941,0.7647058823529411,0.11764705882352941,0.6666666666666666,0.3333333333333333,0.29411764705882354,0.3333333333333333,15,19,No,I used Beats Wireless headphones,7-17,English,"I thought I noticed extra notes being played in between the original test melody, to make it more complex",,Unknown,SONA for course credit,,Yes,Female,,7.0,9+,"Yes, but not so well",violin,Agree,Neither Agree nor Disagree,Tried to memorize the first and last note of the test melody and keep that in my head as the options played,2020-10-02 20:46:51,40140
13,SSS0016,0 2 4 7 9,True,AABAAAABAABBBBBAA,-1.1583158907100046,17,8,0.6854705810546875,940.4300000169314,786.2799999997951,991.8049999978393,3341.1649999897927,0.7846623016240479,1.6111111111111112,2.9444444444444446,0.0,0.0,-205.52499999804422,0.7927768059260722,8.0,9.0,1.0,10.0,7.0,1.0,10.0,7.0,1.0,18.0,18.0,18.0,17.0,0.4444444444444444,0.5,0.05555555555555555,0.5555555555555556,0.3888888888888889,0.05555555555555555,0.5555555555555556,0.3888888888888889,0.05555555555555555,0.47058823529411764,0.5294117647058824,-0.05555555555555558,-0.05882352941176472,16,20,No,speakers,,Spanish,tones,,Unknown,SONA for course credit,,No,Female,,4.0,0,No,,Strongly Agree,Disagree,"Rhythm, tones",2020-09-29 17:51:27,39927
14,SSS0017,0 2 4 7 9,True,ABBBAAABAAA,-0.7559289460184544,11,6,0.5,1992.1900000190362,7048.49000001559,1776.0700000217184,2199.795000080485,0.7791474959395522,1.6470588235294117,2.8823529411764706,0.0,0.0,5272.419999993872,3.9685879497595247,6.0,5.0,6.0,7.0,4.0,6.0,7.0,4.0,6.0,17.0,17.0,17.0,11.0,0.35294117647058826,0.29411764705882354,0.35294117647058826,0.4117647058823529,0.23529411764705882,0.35294117647058826,0.4117647058823529,0.23529411764705882,0.35294117647058826,0.5454545454545454,0.45454545454545453,0.05882352941176472,0.09090909090909088,17,20,No,over the ear headphones,12,English,,,,SONA for course credit,,No,Female,,7.0,0,"Yes, I do alright",guitar,Strongly Agree,Strongly Disagree,none,2020-09-25 18:41:06,39755
15,SSS0018,0 2 4 7 9,True,ABAAABAABB,0.14048787173725422,10,5,0.623046875,1230.1899999729358,1641.8999999877997,1627.794999978505,1028.8900000159629,0.8130409153663426,1.8,2.3333333333333335,0.0,0.0,14.1050000092946,1.0086650960406445,5.0,5.0,5.0,6.0,4.0,5.0,6.0,4.0,5.0,15.0,15.0,15.0,10.0,0.3333333333333333,0.3333333333333333,0.3333333333333333,0.4,0.26666666666666666,0.3333333333333333,0.4,0.26666666666666666,0.3333333333333333,0.5,0.5,0.0,0.0,18,19,No,AirPod Pro ,,English,,,,SONA for course credit,,No,Male,,0.0,0,No,,Strongly Agree,Agree,"I started with the first and last sounds, then tried to incorporate some middle sounds in sequence.",2020-09-18 22:17:41,39460
16,SSS0019,0 2 4 7 9,True,ABBBBBBAAAAA,-2.422120283277993,12,12,0.000244140625,656.8574999691918,580.0600000075065,0.0,1378.919999988284,0.7888489436804933,1.8125,2.875,0.0,0.0,0.0,0.0,12.0,0.0,4.0,6.0,6.0,4.0,6.0,6.0,4.0,16.0,16.0,16.0,12.0,0.75,0.0,0.25,0.375,0.375,0.25,0.375,0.375,0.25,1.0,0.0,0.75,1.0,19,20,No,"headphone, in-ear, Apple airpods (the first model)",8-18,Spanish,I focused on rhythm pattern and note changes,,Unknown,SONA for course credit,,Yes,Female,,6.0,9+,"Yes, I do alright",violin,Strongly Agree,Agree,note changes and sometimes rhythm,2020-09-18 22:39:34,38347
17,SSS0020,0 2 4 7 9,True,ABAABBBAABB,-0.2916059217599019,11,10,0.005859375,4619.302499981597,3594.512499985285,3626.599999960512,12676.470000005327,0.788984607113382,1.3333333333333333,3.1666666666666665,0.0,0.0,-32.08749997522682,0.991152181113005,10.0,1.0,1.0,5.0,6.0,1.0,5.0,6.0,1.0,12.0,12.0,12.0,11.0,0.8333333333333334,0.08333333333333333,0.08333333333333333,0.4166666666666667,0.5,0.08333333333333333,0.4166666666666667,0.5,0.08333333333333333,0.9090909090909091,0.09090909090909091,0.75,0.8181818181818181,20,23,No,Apple AirPods ,5-16,Other (please specify below):,"any notes that seemed ""off"" or new",,Unknown,SONA for course credit,Bengali,No,Male,,7.0,0,"Yes, but not so well",Guitar,Agree,Strongly Agree,none,2020-10-12 20:39:13,40152
18,SSS0021,0 2 4 7 9,True,ABBBBABBBABBAA,-0.26157418189029863,14,10,0.08978271484375,1553.3724999399856,1296.237500035204,1450.277499913238,4172.927500039339,0.7788308564879183,2.3333333333333335,2.7222222222222223,0.0,0.0,-154.039999878034,0.8937858445109648,10.0,4.0,4.0,5.0,9.0,4.0,5.0,9.0,4.0,18.0,18.0,18.0,14.0,0.5555555555555556,0.2222222222222222,0.2222222222222222,0.2777777777777778,0.5,0.2222222222222222,0.2777777777777778,0.5,0.2222222222222222,0.7142857142857143,0.2857142857142857,0.33333333333333337,0.4285714285714286,21,19,No,"yes, earphones",5-16,English,Changes from major key to minor,,Unknown,SONA for course credit,,Yes,Female,,7.0,6-8,"Yes, I do alright","Piano, Violin",Agree,Disagree,key changes,2020-09-23 20:52:32,39754
19,SSS0022,0 2 4 7 9,True,BBABAABBBA,0.14048787173725422,10,9,0.0107421875,1157.6499999938533,1387.5799999949522,1059.2350000003353,1157.6499999938533,0.7529190883678474,2.4,2.2666666666666666,0.0,0.0,328.34499999461696,1.3099831482102773,9.0,1.0,5.0,4.0,6.0,5.0,4.0,6.0,5.0,15.0,15.0,15.0,10.0,0.6,0.06666666666666667,0.3333333333333333,0.26666666666666666,0.4,0.3333333333333333,0.26666666666666666,0.4,0.3333333333333333,0.9,0.1,0.5333333333333333,0.8,22,19,No,in-ear headphones,10-12,English,"the beginning and ending notes and I try to memorize it in twos, like a-b, a-b, a-b, and that helps me to remember the notes better than hearing it as a whole",,Unknown,SONA for course credit,,Yes,Female,,2.0,2-3,"Yes, I do alright",electric piano and ukulele,Strongly Agree,Agree,the difference with the ranges of each note,2020-09-19 00:24:58,40130
20,SSS0023,0 2 4 7 9,True,ABBBAABAABBAABBBAA,-0.48591265790377497,18,9,0.5927352905273438,1330.5499999839813,945.0850000139326,1349.2449999898672,0.0,0.7501690389810528,1.1666666666666667,3.0,0.0,0.0,-404.1599999759346,0.7004546987545109,9.0,9.0,0.0,9.0,9.0,0.0,9.0,9.0,0.0,18.0,18.0,18.0,18.0,0.5,0.5,0.0,0.5,0.5,0.0,0.5,0.5,0.0,0.5,0.5,0.0,0.0,23,18,No,in ear,12,English,,,,SONA for course credit,Korean,No,Female,"I became too angry to focus. I have never been angry at a study before, but this was so frustrating I started shaking after the first ten.",2.0,0,No,,Strongly Agree,Neither Agree nor Disagree,"I tried recognizing peaks and down at first, but as time went on I became too angry to do that.",2020-10-20 17:14:11,40024
21,SSS0024,0 2 4 7 9,True,BABBABABB,1.6329931618554523,9,6,0.25390625,1325.5900000003166,1122.6774999997579,2764.8950000000186,1702.8575000003912,0.8181942615690201,1.5294117647058822,2.3529411764705883,0.0,0.0,-1642.2175000002608,0.4060470650783304,6.0,3.0,8.0,3.0,6.0,8.0,3.0,6.0,8.0,17.0,17.0,17.0,9.0,0.35294117647058826,0.17647058823529413,0.47058823529411764,0.17647058823529413,0.35294117647058826,0.47058823529411764,0.17647058823529413,0.35294117647058826,0.47058823529411764,0.6666666666666666,0.3333333333333333,0.17647058823529413,0.3333333333333333,24,21,No,"Headphones, Turtle Beach Ear Force Recon 50",,Other (please specify below):,how high or low particular tones were and if those tones appeared in the comparison melodies.,,Unknown,SONA for course credit,Bengali,Yes,Female,,0.0,0,No,,Strongly Agree,Strongly Agree,Closing my eyes and listening closely,2020-09-16 16:32:42,38652
22,SSS0025,0 2 4 7 9,True,BBABABBAB,1.6329931618554523,9,5,0.5,2557.9600000055507,2363.6449999758042,3114.0549999836367,3173.3374999894295,0.7637409137308258,1.5384615384615385,2.6923076923076925,0.0,0.0,-750.4100000078324,0.7590248084854714,5.0,4.0,4.0,3.0,6.0,4.0,3.0,6.0,4.0,13.0,13.0,13.0,9.0,0.38461538461538464,0.3076923076923077,0.3076923076923077,0.23076923076923078,0.46153846153846156,0.3076923076923077,0.23076923076923078,0.46153846153846156,0.3076923076923077,0.5555555555555556,0.4444444444444444,0.07692307692307693,0.11111111111111116,25,18,No,apple airpods ,13-18,English,,,,SONA for course credit,,No,Female,,6.0,4-5,No,piano,Strongly Agree,Agree,none,2020-10-06 23:33:33,39928
23,SSS0026,0 2 4 7 9,True,BBAABBBBAAA,-1.5746719775034714,11,9,0.03271484375,671.2799999949057,340.6350000007078,851.6250000102445,1080.0099999764934,0.817074508731024,1.4285714285714286,2.357142857142857,0.0,0.0,-510.99000000953674,0.3999823866098461,9.0,2.0,3.0,5.0,6.0,3.0,5.0,6.0,3.0,14.0,14.0,14.0,11.0,0.6428571428571429,0.14285714285714285,0.21428571428571427,0.35714285714285715,0.42857142857142855,0.21428571428571427,0.35714285714285715,0.42857142857142855,0.21428571428571427,0.8181818181818182,0.18181818181818182,0.5,0.6363636363636365,26,21,No,in-ear earbuds,12,English,I paid attention to the beginning middle and end of the melody and focused on if it started a specific pitch level and how it fluctuated as the melody played,,Unknown,SONA for course credit,,Yes,Male,,5.0,1,No,,Strongly Agree,Disagree,Pitches and Tones,2020-09-17 14:12:58,39502
24,SSS0027,0 2 4 7 9,True,BBBABAAAAB,-0.6708203932499369,10,8,0.0546875,2149.749999982305,1289.9099999922328,2121.3274999754503,5379.580000066198,0.8042197450315639,1.6,3.6,0.0,0.0,-831.4174999832176,0.608067354054082,8.0,2.0,5.0,5.0,5.0,5.0,5.0,5.0,5.0,15.0,15.0,15.0,10.0,0.5333333333333333,0.13333333333333333,0.3333333333333333,0.3333333333333333,0.3333333333333333,0.3333333333333333,0.3333333333333333,0.3333333333333333,0.3333333333333333,0.8,0.2,0.4,0.6000000000000001,27,21,No,"in-ear, apple wired headphones",8-12,English,I think sometime a note was one step or half a step higher or lower than it should have been.,,Unknown,SONA for course credit,,Yes,Female,went back and forth between interval changes and focusing on feeling,4.0,4-5,"Yes, but not so well",piano,Agree,Strongly Agree,I was trying to listen to the whole of the test melodies and remember them for comparison.,2020-10-01 10:51:53,37558
25,SSS0028,0 2 4 7 9,True,BABA,1.224744871391589,4,4,0.0625,1079.3849998153746,2158.3675000583753,0.0,1054.3899999465793,0.8190864508768845,1.6,1.9333333333333333,0.0,0.0,0.0,0.0,4.0,0.0,11.0,2.0,2.0,11.0,2.0,2.0,11.0,15.0,15.0,15.0,4.0,0.26666666666666666,0.0,0.7333333333333333,0.13333333333333333,0.13333333333333333,0.7333333333333333,0.13333333333333333,0.13333333333333333,0.7333333333333333,1.0,0.0,0.26666666666666666,1.0,28,22,No,"in ear, apple airpods ",15,English,,,,SONA for course credit,,No,Female,,5.0,1,"Yes, but not so well",piano ,Strongly Agree,Agree,none,2020-09-16 17:54:18,38145
26,SSS0029,0 2 4 7 9,True,BBABAABBBBBA,-0.22996655275194974,12,5,0.80615234375,1049.5499999960884,2572.9750000173226,808.4450000314973,699.3200000142679,0.7887474009845563,2.0588235294117645,2.176470588235294,0.0,0.0,1764.5299999858253,3.1826221943571653,5.0,7.0,5.0,4.0,8.0,5.0,4.0,8.0,5.0,17.0,17.0,17.0,12.0,0.29411764705882354,0.4117647058823529,0.29411764705882354,0.23529411764705882,0.47058823529411764,0.29411764705882354,0.23529411764705882,0.47058823529411764,0.29411764705882354,0.4166666666666667,0.5833333333333334,-0.11764705882352938,-0.16666666666666669,29,18,No,airpods first gen,,Other (please specify below):,rhythm and tone,,Unknown,SONA for course credit,Russian,Yes,Female,,2.0,0,No,,Agree,Neither Agree nor Disagree,Comparison,2020-10-02 18:54:05,40209
27,SSS0030,0 2 4 7 9,True,ABBAAAABABAAB,0.520476245748122,13,9,0.1334228515625,2447.6850000210106,1154.2500000214204,2455.5050000199117,11147.490000003017,0.7567489654861214,1.6875,3.3125,0.0,0.0,-1301.2549999984913,0.4700662389252152,9.0,4.0,3.0,8.0,5.0,3.0,8.0,5.0,3.0,16.0,16.0,16.0,13.0,0.5625,0.25,0.1875,0.5,0.3125,0.1875,0.5,0.3125,0.1875,0.6923076923076923,0.3076923076923077,0.3125,0.3846153846153846,30,19,No,in-ear,8-12,English,"I think sometimes, the some notes were played differently from the original melody.",,Unknown,SONA for course credit,,Yes,Female,"After the second block keeping my eyes closed and turning off the lights did help. In the last block, I tapped keys to help me remember the first melody. I think between the 3rd and 4th I made up some simple dance moves in my head to help me remember what each melody sounded like.",6.0,4-5,"Yes, I do alright",piano,Strongly Agree,Agree,I imagined the melodies as doodles or sketched them out in my head the way a heart monitor would display a person's heart rate. Closing my eyes and  tapping on a key gently helped discern the melodies too.,2020-09-28 20:57:35,39543
28,SSS0031,0 2 4 7 9,True,BAABBABBABBABA,1.2191310379958664,14,7,0.604736328125,2370.489999972284,2126.0350000225008,3219.429999996908,0.0,0.7678465297452343,1.7857142857142858,2.7857142857142856,0.0,0.0,-1093.3949999744073,0.6603762156731293,7.0,7.0,0.0,6.0,8.0,0.0,6.0,8.0,0.0,14.0,14.0,14.0,14.0,0.5,0.5,0.0,0.42857142857142855,0.5714285714285714,0.0,0.42857142857142855,0.5714285714285714,0.0,0.5,0.5,0.0,0.0,31,20,No,headphone,4-12,Other (please specify below):,the music basically all sound different,,,SONA for course credit,chinese,Yes,Female,,3.0,6-8,"Yes, I do alright",piano,Strongly Agree,Neither Agree nor Disagree,listen,2020-10-07 05:01:43,39012
29,SSS0032,0 2 4 7 9,True,BAAAABAABAAAA,0.32616403652672143,13,8,0.29052734375,6547.385000001639,6062.797500000801,14369.334999999031,4222.267499999143,0.7718156482284715,1.6666666666666667,2.533333333333333,0.0,0.0,-8306.53749999823,0.4219261016603211,8.0,5.0,2.0,10.0,3.0,2.0,10.0,3.0,2.0,15.0,15.0,15.0,13.0,0.5333333333333333,0.3333333333333333,0.13333333333333333,0.6666666666666666,0.2,0.13333333333333333,0.6666666666666666,0.2,0.13333333333333333,0.6153846153846154,0.38461538461538464,0.2,0.23076923076923078,32,,No,in-eaer,,English,,,,SONA for payment,,No,Male,,4.0,0,"Yes, but not so well",piano,Strongly Agree,Strongly Agree,,2020-09-23 17:46:49,39535
30,SSS0033,0 2 4 7 9,True,AAABABAABBABABBBBA,0.48591265790377497,18,13,0.048126220703125,796.2674999726005,605.8650000486523,1048.4550000401214,0.0,0.7717691764750668,1.7777777777777777,2.9444444444444446,0.0,0.0,-442.5899999914691,0.5778645721804633,13.0,5.0,0.0,9.0,9.0,0.0,9.0,9.0,0.0,18.0,18.0,18.0,18.0,0.7222222222222222,0.2777777777777778,0.0,0.5,0.5,0.0,0.5,0.5,0.0,0.7222222222222222,0.2777777777777778,0.4444444444444444,0.4444444444444444,33,17,Yes,over-the-ear,8-12,Spanish,,,,SONA for course credit,,No,Female,"Block 3, I started noticing that one option was kind of pitchy and the other had a note which had nothing to do with the original notes",8.0,4-5,"Yes, I do alright",piano and ukelele,Strongly Agree,Neither Agree nor Disagree,the tone,2020-09-19 11:18:18,39986
31,SSS0034,0 2 4 7 9,True,ABBBBBBABBBBABB,0.17521916101261575,15,7,0.696380615234375,1235.35999993328,630.9050000272691,1668.7974999658763,0.0,0.7712005175954544,1.6666666666666667,2.2666666666666666,0.0,0.0,-1037.8924999386072,0.3780596507606045,7.0,8.0,0.0,3.0,12.0,0.0,3.0,12.0,0.0,15.0,15.0,15.0,15.0,0.4666666666666667,0.5333333333333333,0.0,0.2,0.8,0.0,0.2,0.8,0.0,0.4666666666666667,0.5333333333333333,-0.06666666666666665,-0.06666666666666665,34,18,No,in - ear,12-15,Other (please specify below):,If a particular notes is drastically different ,,Unknown,SONA for course credit,Hindi,Yes,Female,,2.0,2-3,"Yes, but not so well",Piano,Strongly Agree,Neither Agree nor Disagree,,2020-09-19 12:34:32,39838
32,SSS0035,0 2 4 7 9,True,BBABBABBAAAA,-0.6055300708194983,12,9,0.072998046875,1042.7000000490807,884.409999998752,4198.170000046957,1451.6849999781698,0.7897755462112368,1.1333333333333333,3.2,0.0,0.0,-3313.7600000482053,0.2106655995323819,9.0,3.0,3.0,6.0,6.0,3.0,6.0,6.0,3.0,15.0,15.0,15.0,12.0,0.6,0.2,0.2,0.4,0.4,0.2,0.4,0.4,0.2,0.75,0.25,0.39999999999999997,0.5,35,19,No,"in-ear headphones, airpods ",7-14,English,the sharpness or flatness of a note helped me find a difference,,Unknown,SONA for course credit,,Yes,Female,,4.0,6-8,"Yes, I do alright",piano and trumpet,Strongly Agree,Disagree,"rhythm, correct note, if a note sounded more flat or sharp than the test melody",2020-09-23 17:57:26,39459
33,SSS0036,0 2 4 7 9,True,ABBBAABBBAABBABBB,-0.4220534530833179,17,10,0.3145294189453125,1529.2999999946915,1355.069999990752,1926.1349999872036,0.0,0.7793473616426483,2.176470588235294,2.7058823529411766,0.0,0.0,-571.0649999964517,0.7035176662070698,10.0,7.0,0.0,6.0,11.0,0.0,6.0,11.0,0.0,17.0,17.0,17.0,17.0,0.5882352941176471,0.4117647058823529,0.0,0.35294117647058826,0.6470588235294118,0.0,0.35294117647058826,0.6470588235294118,0.0,0.5882352941176471,0.4117647058823529,0.17647058823529416,0.17647058823529416,36,18,No,in-ear headphones,10-12,English,I listened for major changes in tones,,Unknown,SONA for course credit,,No,Female,,4.0,2-3,"Yes, but not so well",piano,Strongly Agree,Agree,notice the first and last notes,2020-10-07 12:26:33,39680
34,SSS0037,0 2 4 7 9,False,ABBBAAABAAB,-0.2916059217599019,11,2,0.994140625,4350.749999983236,3274.677499954123,4876.379999972414,4435.829999973066,0.7804645829453624,1.75,2.375,0.0,0.0,-1601.7025000182912,0.6715386208565879,2.0,9.0,5.0,6.0,5.0,5.0,6.0,5.0,5.0,16.0,16.0,16.0,11.0,0.125,0.5625,0.3125,0.375,0.3125,0.3125,0.375,0.3125,0.3125,0.18181818181818182,0.8181818181818182,-0.4375,-0.6363636363636365,37,20,No,in ear,18,Other (please specify below):,,,,SONA for course credit,Chinese,No,Female,,5.0,1,No,,Strongly Disagree,Neither Agree nor Disagree,,2020-09-16 18:17:52,38038
35,SSS0038,0 2 4 7 9,True,BBBBABAAAAAAABA,-1.2320394258924525,15,10,0.15087890624999997,2194.9499999172986,1778.2824999885634,2225.3399998880923,6568.720000097528,0.8453121271443156,1.6875,2.875,0.0,0.0,-447.0574998995289,0.7991059793460727,10.0,5.0,1.0,9.0,6.0,1.0,9.0,6.0,1.0,16.0,16.0,16.0,15.0,0.625,0.3125,0.0625,0.5625,0.375,0.0625,0.5625,0.375,0.0625,0.6666666666666666,0.3333333333333333,0.3125,0.3333333333333333,38,18,No,earphones,5-present,English,the key,,Unknown,SONA for course credit,,Yes,Female,,8.0,9+,"Yes, I do alright","piano, viola, organ, voice",Strongly Agree,Disagree,my ear,2020-09-16 18:32:42,39979
36,SSS0039,0 2 4 7 9,False,BAAAABBBAABBBBAABA,-0.9718253158075499,18,12,0.1189422607421875,1565.2224999940954,1027.047499999404,2004.0775000234134,0.0,0.7705008331051357,1.3888888888888888,2.888888888888889,0.0,0.0,-977.0300000240095,0.512478933567891,12.0,6.0,0.0,9.0,9.0,0.0,9.0,9.0,0.0,18.0,18.0,18.0,18.0,0.6666666666666666,0.3333333333333333,0.0,0.5,0.5,0.0,0.5,0.5,0.0,0.6666666666666666,0.3333333333333333,0.3333333333333333,0.3333333333333333,39,21,No,In ear apple earphones,,English,,,,SONA for course credit,,No,Female,,0.0,0,No,,Strongly Disagree,Disagree,,2020-09-23 19:08:36,39759
37,SSS0040,0 2 4 7 9,True,BABBABAAAABABBB,0.28718326344709516,15,10,0.15087890624999997,534.5650000381283,493.32249999861233,536.9749999954365,1025.9050000167917,0.7812299922543698,1.7647058823529411,2.5294117647058822,0.0,0.0,-43.65249999682419,0.9187066437037196,10.0,5.0,2.0,7.0,8.0,2.0,7.0,8.0,2.0,17.0,17.0,17.0,15.0,0.5882352941176471,0.29411764705882354,0.11764705882352941,0.4117647058823529,0.47058823529411764,0.11764705882352941,0.4117647058823529,0.47058823529411764,0.11764705882352941,0.6666666666666666,0.3333333333333333,0.29411764705882354,0.3333333333333333,40,18,No,"in-ear, AirPods",12-13,English,,,,SONA for course credit,,No,Female,,3.0,2-3,"Yes, but not so well",Guitar,Strongly Agree,Agree,"Judging difference between the highest high notes and the lowest low notes, keeping track of how many very high or very low notes there were.",2020-09-16 19:11:01,39889
38,SSS0041,0 2 4 7 9,True,ABABBBBAABBAA,-0.269136782409754,13,10,0.046142578125,1566.7374999895692,1829.0075000254437,1467.0849999524653,1265.6800000118092,0.8331069708623745,1.25,2.4375,0.0,0.0,361.92250007297844,1.2466949768314073,10.0,3.0,3.0,6.0,7.0,3.0,6.0,7.0,3.0,16.0,16.0,16.0,13.0,0.625,0.1875,0.1875,0.375,0.4375,0.1875,0.375,0.4375,0.1875,0.7692307692307693,0.23076923076923078,0.4375,0.5384615384615385,41,20,No,yes. airpods,,Other (please specify below):,,,,SONA for course credit,Korean,No,Female,,4.0,0,"Yes, I do alright","piano, violin, guitar",Agree,Strongly Agree,number of high tones,2020-09-16 20:17:03,37831
39,SSS0042,0 2 4 7 9,True,ABAABBABBBABBA,0.6502032202644622,14,6,0.78802490234375,675.3899999894202,827.5675000040792,580.0275000219699,1495.8450000267476,0.7968080070399175,1.3333333333333333,3.533333333333333,0.0,0.0,247.5399999821093,1.4267728684807757,6.0,8.0,1.0,6.0,8.0,1.0,6.0,8.0,1.0,15.0,15.0,15.0,14.0,0.4,0.5333333333333333,0.06666666666666667,0.4,0.5333333333333333,0.06666666666666667,0.4,0.5333333333333333,0.06666666666666667,0.42857142857142855,0.5714285714285714,-0.1333333333333333,-0.14285714285714285,42,19,No,apple air pods ,13-14,Spanish,,,,SONA for course credit,,No,Female,,1.0,1,"Yes, but not so well",handbells,Strongly Agree,Neither Agree nor Disagree,closing my eyes and focusing solely on the melody ,2020-09-16 19:49:02,39118
40,SSS0043,0 2 4 7 9,True,BABAABBAABBA,0.6055300708194983,12,9,0.072998046875,781.7374999867752,852.6849999912083,710.7899999823421,0.0,0.8189713917389075,2.25,2.5,0.0,0.0,141.8950000088662,1.1996299891844162,9.0,3.0,0.0,6.0,6.0,0.0,6.0,6.0,0.0,12.0,12.0,12.0,12.0,0.75,0.25,0.0,0.5,0.5,0.0,0.5,0.5,0.0,0.75,0.25,0.5,0.5,43,19,No,standard issue apple earbuds (plug-in not airpods),9,English,I would sing the test melody to myself while the two options were playing to hear if there were any notes that were higher or lower than the ones from the original,,Unknown,SONA for course credit,Mandarin Chinese,Yes,Female,,6.0,0,No,Piano,Strongly Agree,Agree,listen to notes that stand out from the rest (either higher or lower),2020-09-25 20:56:01,40191
41,SSS0044,0 2 4 7 9,True,AAAAABAAABAABBAAA,-0.0841034267062357,17,9,0.5,2508.6699999808334,2141.4800000204705,2902.2225000078324,0.0,0.796875906271526,1.8235294117647058,2.1176470588235294,0.0,0.0,-760.742499987362,0.737875886502393,9.0,8.0,0.0,13.0,4.0,0.0,13.0,4.0,0.0,17.0,17.0,17.0,17.0,0.5294117647058824,0.47058823529411764,0.0,0.7647058823529411,0.23529411764705882,0.0,0.7647058823529411,0.23529411764705882,0.0,0.5294117647058824,0.47058823529411764,0.05882352941176472,0.05882352941176472,44,18,No,earphones in-ear.,10-13,English,high tones versus low tones,,Unknown,SONA for course credit,,Yes,Female,,7.0,2-3,"Yes, I do alright",piano,Strongly Agree,Agree,"look at the first and last note, and notice any unexpected high tones in the middle.",2020-10-01 11:38:54,39680
42,SSS0045,0 2 4 7 9,True,BBAAABBAAA,-1.2643908456352868,10,6,0.376953125,2002.0450000008568,1650.2649999968708,1880.6275000022724,6165.840000001714,0.8127742963779558,1.3333333333333333,1.9333333333333333,0.0,0.0,-230.36250000540167,0.877507640399216,6.0,4.0,5.0,6.0,4.0,5.0,6.0,4.0,5.0,15.0,15.0,15.0,10.0,0.4,0.26666666666666666,0.3333333333333333,0.4,0.26666666666666666,0.3333333333333333,0.4,0.26666666666666666,0.3333333333333333,0.6,0.4,0.13333333333333336,0.19999999999999996,45,19,No,in-ear,8-11,English,,,,SONA for course credit,,No,Female,,0.0,0,No,,Strongly Agree,Strongly Agree,,2020-09-25 22:58:03,39921
43,SSS0046,0 2 4 7 9,True,BAABAAABB,-0.32128773156099966,9,9,0.001953125,1994.429999991553,1207.315000006929,0.0,4658.07500001369,0.792589566771857,1.75,2.25,0.0,0.0,0.0,0.0,9.0,0.0,3.0,5.0,4.0,3.0,5.0,4.0,3.0,12.0,12.0,12.0,9.0,0.75,0.0,0.25,0.4166666666666667,0.3333333333333333,0.25,0.4166666666666667,0.3333333333333333,0.25,1.0,0.0,0.75,1.0,46,19,No,apple airpods,3-14,English,particular notes stood out,,Unknown,SONA for course credit,,Yes,Female,,10.0,9+,"Yes, I do alright","piano, violin",Strongly Agree,Disagree,none,2020-09-16 20:25:20,39714
44,SSS0047,0 2 4 7 9,True,BBAABBAAAB,-0.6708203932499369,10,7,0.171875,1647.230000000447,425.13499999884516,727.1049999995157,3525.0124999997206,0.7889277989874212,1.5555555555555556,2.611111111111111,0.0,0.0,-301.97000000067055,0.5846954703916605,7.0,3.0,8.0,5.0,5.0,8.0,5.0,5.0,8.0,18.0,18.0,18.0,10.0,0.3888888888888889,0.16666666666666666,0.4444444444444444,0.2777777777777778,0.2777777777777778,0.4444444444444444,0.2777777777777778,0.2777777777777778,0.4444444444444444,0.7,0.3,0.22222222222222224,0.39999999999999997,47,18,No,air pods ,7-17,English,,,,SONA for course credit,,No,Female,,8.0,9+,"Yes, but not so well","piano, guitar",Strongly Agree,Strongly Agree,listening and counting,2020-09-23 19:32:37,40050
45,SSS0048,0 2 4 7 9,True,AABBBBBB,-2.160246899469287,8,6,0.14453125,1512.3725000014529,958.5324999922886,9906.500000012107,1824.0649999929592,0.7682898474022651,1.9,3.0,0.0,0.0,-8947.967500019819,0.09675793670732522,6.0,2.0,2.0,2.0,6.0,2.0,2.0,6.0,2.0,10.0,10.0,10.0,8.0,0.6,0.2,0.2,0.2,0.6,0.2,0.2,0.6,0.2,0.75,0.25,0.39999999999999997,0.5,48,20,Yes,No,5-19,Other (please specify below):,The melodies and the alternatives rarely differ in the beginning or the end (maybe too noticeable?),,Unknown,SONA for course credit,Chinese,Yes,Female,2,9.0,6-8,"Yes, I am near professional","Piano, Zhongruan",Strongly Agree,Disagree,focusing on the beginning and ending notes,2020-10-07 15:05:58,39635
46,SSS0049,0 2 4 7 9,True,ABBBAABBABABAABABAB,1.6697900340354104,19,8,0.8203582763671875,1264.3249998800457,1043.8874999526888,2034.8799999337643,0.0,0.7953362358990997,1.3157894736842106,2.9473684210526314,0.0,0.0,-990.9924999810755,0.5129970809023959,8.0,11.0,0.0,9.0,10.0,0.0,9.0,10.0,0.0,19.0,19.0,19.0,19.0,0.42105263157894735,0.5789473684210527,0.0,0.47368421052631576,0.5263157894736842,0.0,0.47368421052631576,0.5263157894736842,0.0,0.42105263157894735,0.5789473684210527,-0.1578947368421053,-0.1578947368421053,49,19,No,"yes, I used airpods (2nd gen)",8,Spanish,some sounds were deeper than in the original test noise,,,SONA for course credit,,Yes,Female,,0.0,1,No,practiced piano when I was 8 (with a tutor),Strongly Agree,Strongly Agree,tried to listen to the last couple of sounds ,2020-10-17 22:14:47,39208
47,SSS0050,0 2 4 7 9,True,ABBBABAABABBBA,0.6502032202644622,14,14,6.103515625e-05,1306.9350000005215,1186.980000000447,0.0,3886.050000000745,0.8172341044280238,1.2666666666666666,2.3333333333333335,0.0,0.0,0.0,0.0,14.0,0.0,1.0,6.0,8.0,1.0,6.0,8.0,1.0,15.0,15.0,15.0,14.0,0.9333333333333333,0.0,0.06666666666666667,0.4,0.5333333333333333,0.06666666666666667,0.4,0.5333333333333333,0.06666666666666667,1.0,0.0,0.9333333333333333,1.0,50,20,Yes,in-ear headphones,12-20 years of age,English,The keys were changing between each melody and there was a slight keynote change in the options,,Unknown,SONA for course credit,Yoruba,Yes,Female,,10.0,6-8,"Yes, I am near professional",Piano,Strongly Agree,Strongly Disagree,,2020-09-16 23:57:26,39901
48,SSS0051,0 2 4 7 9,True,BBBAABABABABABAA,1.552647508520297,16,16,1.52587890625e-05,704.434999993071,686.259999988135,0.0,13585.76000001654,0.8282523352363925,1.6470588235294117,2.8823529411764706,0.0,0.0,0.0,0.0,16.0,0.0,1.0,8.0,8.0,1.0,8.0,8.0,1.0,17.0,17.0,17.0,16.0,0.9411764705882353,0.0,0.058823529411764705,0.47058823529411764,0.47058823529411764,0.058823529411764705,0.47058823529411764,0.47058823529411764,0.058823529411764705,1.0,0.0,0.9411764705882353,1.0,51,20,Yes,in-ear apple airpods,5-13,Other (please specify below):,,,,SONA for course credit,"I learned to speak french, english and arabic at the same time so I'm not sure which is the first",No,Female,"I actually used this strategy in the last few blocks, whereas in the first few I only tried to repeat the melody in my head",4.0,4-5,"Yes, but not so well",Piano ,Agree,Neither Agree nor Disagree,to focus on something distant and try to keep the melody playing in my head,2020-09-17 23:18:58,39870
49,SSS0052,0 2 4 7 9,True,BBAAABBAAAABABABA,0.39626596261131797,17,8,0.6854705810546875,731.1575000002049,604.1299999998882,835.859999999404,76.07999999914318,0.8044911367517319,1.5,3.0,0.0,0.0,-231.7299999995157,0.7227645778004917,8.0,9.0,1.0,10.0,7.0,1.0,10.0,7.0,1.0,18.0,18.0,18.0,17.0,0.4444444444444444,0.5,0.05555555555555555,0.5555555555555556,0.3888888888888889,0.05555555555555555,0.5555555555555556,0.3888888888888889,0.05555555555555555,0.47058823529411764,0.5294117647058824,-0.05555555555555558,-0.05882352941176472,52,22,No,Headphones ,,Spanish,,,,SONA for course credit,,No,Male,,3.0,0,No,,Agree,Neither Agree nor Disagree,None ,2020-09-23 20:34:24,34995
50,SSS0053,0 2 4 7 9,True,BBABBBBABBBBABABA,1.1873115588859051,17,6,0.9282684326171875,3563.1250000004657,3853.2099999974016,3185.929999999702,0.0,0.8040060484712565,1.4705882352941178,1.8823529411764706,0.0,0.0,667.2799999976996,1.2094459074737243,6.0,11.0,0.0,5.0,12.0,0.0,5.0,12.0,0.0,17.0,17.0,17.0,17.0,0.35294117647058826,0.6470588235294118,0.0,0.29411764705882354,0.7058823529411765,0.0,0.29411764705882354,0.7058823529411765,0.0,0.35294117647058826,0.6470588235294118,-0.29411764705882354,-0.29411764705882354,53,18,No,in-ear Apple Airpods Pro ,17-18,Other (please specify below):,,,,SONA for course credit,Italian,No,Male,,5.0,1,"Yes, but not so well",Guitar,Strongly Agree,Strongly Disagree,didn't use any specific strategy ,2020-09-16 21:43:15,39605
51,SSS0054,0 2 4 7 9,True,BAAAAAAAABAAA,-0.4689790496105423,13,5,0.8665771484375,2811.654999997467,3666.5299999872223,2356.8024999988265,2829.729999997653,0.7996179174949264,1.263157894736842,2.263157894736842,0.0,0.0,1309.7274999883957,1.555722212611811,5.0,8.0,6.0,11.0,2.0,6.0,11.0,2.0,6.0,19.0,19.0,19.0,13.0,0.2631578947368421,0.42105263157894735,0.3157894736842105,0.5789473684210527,0.10526315789473684,0.3157894736842105,0.5789473684210527,0.10526315789473684,0.3157894736842105,0.38461538461538464,0.6153846153846154,-0.15789473684210525,-0.23076923076923078,54,20,No,in-ear,9-12,English,,,,SONA for course credit,,No,Female,,4.0,0,No,piano,Agree,Strongly Agree,,2020-09-25 23:53:14,39625
52,SSS0055,0 2 4 7 9,True,BBBABBAABABAA,0.31399291281137953,13,8,0.29052734375,1539.8650000006892,554.565000000177,2616.6599999996834,1447.1075000001583,0.8216175675151323,1.3333333333333333,2.933333333333333,0.0,0.0,-2062.0949999995064,0.21193620875476527,8.0,5.0,2.0,6.0,7.0,2.0,6.0,7.0,2.0,15.0,15.0,15.0,13.0,0.5333333333333333,0.3333333333333333,0.13333333333333333,0.4,0.4666666666666667,0.13333333333333333,0.4,0.4666666666666667,0.13333333333333333,0.6153846153846154,0.38461538461538464,0.2,0.23076923076923078,55,18,No,over the ear,,English,if there were higher or lower tuned notes,,Unknown,SONA for course credit,,Yes,Male,,3.0,2-3,"Yes, I do alright","clarinet, guitar",Agree,Neither Agree nor Disagree,if there were similar tunes and in the same order,2020-09-16 22:15:10,39579
53,SSS0056,0 2 4 7 9,True,AABBABBABBA,0.3499271061118829,11,4,0.88671875,1103.1899999999441,1121.7299999997485,629.3699999996461,1777.467500000028,0.7998438871950804,1.6923076923076923,2.6153846153846154,0.0,0.0,492.36000000010245,1.7823061156400517,4.0,7.0,2.0,5.0,6.0,2.0,5.0,6.0,2.0,13.0,13.0,13.0,11.0,0.3076923076923077,0.5384615384615384,0.15384615384615385,0.38461538461538464,0.46153846153846156,0.15384615384615385,0.38461538461538464,0.46153846153846156,0.15384615384615385,0.36363636363636365,0.6363636363636364,-0.23076923076923073,-0.2727272727272727,56,20,No,airpods,14-16,English,,,,SONA for course credit,,No,Female,,3.0,2-3,"Yes, but not so well",guitar,Strongly Agree,Agree,high and low tones,2020-09-19 13:05:06,39657
54,SSS0057,0 2 4 7 9,True,ABBBBBABBBBBBA,-0.6154574548966638,14,8,0.395263671875,4545.33999999892,3579.907500000205,5119.179999999935,6094.875000000931,0.7888032057590104,1.8235294117647058,2.2941176470588234,0.0,0.0,-1539.27249999973,0.6993126828906682,8.0,6.0,3.0,3.0,11.0,3.0,3.0,11.0,3.0,17.0,17.0,17.0,14.0,0.47058823529411764,0.35294117647058826,0.17647058823529413,0.17647058823529413,0.6470588235294118,0.17647058823529413,0.17647058823529413,0.6470588235294118,0.17647058823529413,0.5714285714285714,0.42857142857142855,0.11764705882352938,0.14285714285714285,57,19,No,"In-ear, Jabra earbuds",,English,I focused on different parts/tunes in the music and figured if they matched.,,Unknown,SONA for course credit,,Yes,Male,,3.0,0,"Yes, but not so well",Keyboard,Strongly Agree,Agree,I tried to follow major tunes across the melodies and figure if they matched.,2020-09-19 13:25:53,39695
55,SSS0058,0 2 4 7 9,True,BABBABBBAAABAABBA,0.2662069528248341,17,17,7.62939453125e-06,727.927500003716,616.9050000025891,0.0,916.3499999996275,0.8458619588080568,1.7777777777777777,3.2777777777777777,0.0,0.0,0.0,0.0,17.0,0.0,1.0,8.0,9.0,1.0,8.0,9.0,1.0,18.0,18.0,18.0,17.0,0.9444444444444444,0.0,0.05555555555555555,0.4444444444444444,0.5,0.05555555555555555,0.4444444444444444,0.5,0.05555555555555555,1.0,0.0,0.9444444444444444,1.0,58,19,No,I used Samsung Wired AKG earphones for the Samsung S10.,"I love to listen to music, but I never had formal training for any instrument.",Other (please specify below):,"Some of the melodies are either out of tune, or too high on a pitch or too low than the original.",,Unknown,SONA for course credit,Tagalog,Yes,Female,,2.0,0,"Yes, but not so well",Piano and the Lyre,Strongly Agree,Disagree,The strategy I used this time around was to close my eyes to focus even more on what I'm hearing.,2020-09-16 22:52:54,39620
56,SSS0059,0 2 4 7 9,True,AAAABBABBBBBBBBA,-1.9414506867883021,16,16,1.52587890625e-05,791.5874999999069,791.5874999999069,0.0,0.0,0.8127338057844796,1.4375,2.1875,0.0,0.0,0.0,0.0,16.0,0.0,0.0,6.0,10.0,0.0,6.0,10.0,0.0,16.0,16.0,16.0,16.0,1.0,0.0,0.0,0.375,0.625,0.0,0.375,0.625,0.0,1.0,0.0,1.0,1.0,59,19,No,in ear head phones ,14-18,English,"If i heard a change in tone, such as a flat or sharp note then I would recognize the difference",,,SONA for course credit,Telugu,Yes,Female,,10.0,4-5,"Yes, but not so well",Piano,Strongly Agree,Strongly Disagree,"The differences in individual notes, and also tapping my feet with each note helped me to remember each tone.",2020-09-25 23:50:10,39853
57,SSS0060,0 2 4 7 9,True,BBBABBBAA,-0.8164965809277261,9,7,0.08984375,1270.8199999998324,1179.8000000016764,990.4374999988358,2349.115000000689,0.806817207954294,1.4166666666666667,2.4166666666666665,0.0,0.0,189.36250000284053,1.1911907616614508,7.0,2.0,3.0,3.0,6.0,3.0,3.0,6.0,3.0,12.0,12.0,12.0,9.0,0.5833333333333334,0.16666666666666666,0.25,0.25,0.5,0.25,0.25,0.5,0.25,0.7777777777777778,0.2222222222222222,0.41666666666666674,0.5555555555555556,60,18,Yes,speakers,11-17,English,the highest and lowest notes as well as particularly significant chromatic notes stuck out to me. Melodies which seemed to be in one key were easier to judge also,,Unknown,SONA for course credit,,Yes,Male,"My strategy developed gradually, but if I had to pinpoint, I would say around the 4th block. This is when I began to focus more on key/chromatic notes",7.0,6-8,"Yes, I do alright","clarinet, tenor saxophone",Strongly Agree,Agree,"I would nod along to the test melodies. If I noticed something in the first choice and wasn't sure if it was a difference, I would attempt to confirm it in the second. Other than that, my strategy mostly entailed ""feeling it out""",2020-10-12 19:39:26,40068
58,SSS0061,0 2 4 7 9,True,BBABAAABAAAAABAA,0.07617550741785384,16,13,0.0106353759765625,2758.735000040382,2376.204999978654,3726.4100000038743,176451.12500002142,0.8126589086112075,1.6470588235294117,2.4705882352941178,0.0,0.0,-1350.2050000252202,0.6376660109800542,13.0,3.0,1.0,11.0,5.0,1.0,11.0,5.0,1.0,17.0,17.0,17.0,16.0,0.7647058823529411,0.17647058823529413,0.058823529411764705,0.6470588235294118,0.29411764705882354,0.058823529411764705,0.6470588235294118,0.29411764705882354,0.058823529411764705,0.8125,0.1875,0.588235294117647,0.625,61,18,Yes,"headphones, in-ear, older? apple earbuds",14,English,i felt sometimes i recognized parts of the melody changed key or a series of notes were raised/lowered by half a note,,Unknown,SONA for course credit,,Yes,Other,i don't remember,5.0,1,"Yes, but not so well",violin,Strongly Agree,Strongly Agree,"looking at it holistically, rather than which one had more notes with drastically different pitches from the original",2020-09-17 01:11:06,39461
59,SSS0062,0 2 4 7 9,True,BAABAABBAABBAAAABBB,-0.6978227007909172,19,11,0.3238029479980469,2206.360000011511,1942.6650000098161,2794.4450000068173,0.0,0.7606720252945913,1.894736842105263,2.789473684210526,0.0,0.0,-851.7799999970011,0.6951881321711741,11.0,8.0,0.0,10.0,9.0,0.0,10.0,9.0,0.0,19.0,19.0,19.0,19.0,0.5789473684210527,0.42105263157894735,0.0,0.5263157894736842,0.47368421052631576,0.0,0.5263157894736842,0.47368421052631576,0.0,0.5789473684210527,0.42105263157894735,0.1578947368421053,0.1578947368421053,62,21,No,headphones,"4-14, 19-20",English,Many times when a note was flat or sharp it helped in discriminating the melody.,,Unknown,SONA for course credit,,No,Female,I started the strategy stated around block 5. Prior to that I was doing it without any strategy.,5.0,0,"Yes, I do alright","ukulele, piano",Agree,Neither Agree nor Disagree,changes in tone (higher/lower),2020-10-01 14:50:14,36029
60,SSS0063,0 2 4 7 9,True,AAABABBBABABA,0.8971226080325131,13,8,0.29052734375,852.5899999658577,676.1174999701325,1186.7550000315532,0.0,0.8296815542410754,1.3076923076923077,2.923076923076923,0.0,0.0,-510.6375000614207,0.5697195292643856,8.0,5.0,0.0,7.0,6.0,0.0,7.0,6.0,0.0,13.0,13.0,13.0,13.0,0.6153846153846154,0.38461538461538464,0.0,0.5384615384615384,0.46153846153846156,0.0,0.5384615384615384,0.46153846153846156,0.0,0.6153846153846154,0.38461538461538464,0.23076923076923078,0.23076923076923078,63,18,No,earphones,5-present,English,key changes,,Unknown,SONA for course credit,,Yes,Female,,7.0,9+,"Yes, I do alright","piano, viola, organ, voice",Strongly Agree,Disagree,ear,2020-09-30 23:12:51,39979
61,SSS0064,0 2 4 7 9,True,BABBBBBBABA,0.5252626970392065,11,5,0.7255859375,5447.33249998535,2061.0800000140443,5564.354999980424,6994.850000016391,0.7774303957413419,1.7142857142857142,2.4285714285714284,0.0,0.0,-3503.2749999663793,0.370407711230016,5.0,6.0,3.0,3.0,8.0,3.0,3.0,8.0,3.0,14.0,14.0,14.0,11.0,0.35714285714285715,0.42857142857142855,0.21428571428571427,0.21428571428571427,0.5714285714285714,0.21428571428571427,0.21428571428571427,0.5714285714285714,0.21428571428571427,0.45454545454545453,0.5454545454545454,-0.0714285714285714,-0.09090909090909088,64,18,No,"in-ear, samsung wireless headphones",,English,,,,SONA for course credit,,No,Female,,3.0,0,"Yes, but not so well",guitar,Agree,Strongly Agree,by ear,2020-09-17 00:58:42,38119
62,SSS0065,0 2 4 7 9,True,BABABBBAABAAAB,0.5563486402641867,14,8,0.395263671875,803.4400000469759,803.4400000469759,1036.21499997098,0.0,0.7679659807474166,1.5714285714285714,2.5714285714285716,0.0,0.0,-232.77499992400408,0.7753603258681614,8.0,6.0,0.0,7.0,7.0,0.0,7.0,7.0,0.0,14.0,14.0,14.0,14.0,0.5714285714285714,0.42857142857142855,0.0,0.5,0.5,0.0,0.5,0.5,0.0,0.5714285714285714,0.42857142857142855,0.14285714285714285,0.14285714285714285,65,19,No,yes in-ear apple earphones,7-10,English,Yes if I heard discordant notes I winced are marked those down,,Unknown,SONA for course credit,Russian,Yes,Female,,4.0,2-3,No,"piano, violin, flute, drums, ukulele",Agree,Disagree,I followed the general emotion each melody gave me,2020-10-05 11:02:45,39497
63,SSS0066,0 2 4 7 9,True,BBBBBABBABB,0.8432740427115671,11,9,0.03271484375,988.8675000017975,827.3349999985658,967.0299999997951,2326.7799999993294,0.8030166887719262,1.1875,3.0,0.0,0.0,-139.69500000122935,0.8555422272305316,9.0,2.0,5.0,2.0,9.0,5.0,2.0,9.0,5.0,16.0,16.0,16.0,11.0,0.5625,0.125,0.3125,0.125,0.5625,0.3125,0.125,0.5625,0.3125,0.8181818181818182,0.18181818181818182,0.4375,0.6363636363636365,66,18,No,earphones aka airpods,10-5,English,I just noticed the pattern and based it off that,,Unknown,SONA for course credit,,No,Male,,8.0,0,No,Piano,Strongly Agree,Strongly Agree,focusing on where and how the high notes hit mostly,2020-09-26 12:42:27,39526
64,SSS0067,0 2 4 7 9,True,BAABABABBBBABBAABA,1.0394506945877098,18,14,0.01544189453125,465.4399999999441,472.4300000006333,396.6400000008289,0.0,0.7837537914584379,1.8333333333333333,3.2777777777777777,0.0,0.0,75.78999999980442,1.191080072609031,14.0,4.0,0.0,8.0,10.0,0.0,8.0,10.0,0.0,18.0,18.0,18.0,18.0,0.7777777777777778,0.2222222222222222,0.0,0.4444444444444444,0.5555555555555556,0.0,0.4444444444444444,0.5555555555555556,0.0,0.7777777777777778,0.2222222222222222,0.5555555555555556,0.5555555555555556,67,19,No,Headphones,,Other (please specify below):,I tried to remember the beginning and end of the melody and thought I'd intuitively remember any deeper notes in the middle,,Unknown,SONA for course credit,Bengali,Yes,Female,,5.0,0,No,,Strongly Agree,Neither Agree nor Disagree,Tried to remember parts of the test melody,2020-09-22 12:37:52,37785
65,SSS0068,0 2 4 7 9,True,BAAABBBABBBABB,-0.26157418189029863,14,9,0.21197509765625,1512.8750000149012,789.9699999829754,3582.0800000224262,1512.8750000149012,0.8303319497181364,1.9333333333333333,3.466666666666667,0.0,0.0,-2792.110000039451,0.2205338797508793,9.0,5.0,1.0,5.0,9.0,1.0,5.0,9.0,1.0,15.0,15.0,15.0,14.0,0.6,0.3333333333333333,0.06666666666666667,0.3333333333333333,0.6,0.06666666666666667,0.3333333333333333,0.6,0.06666666666666667,0.6428571428571429,0.35714285714285715,0.26666666666666666,0.28571428571428575,68,21,No,"in ear headphones, apple headphones ",15-17,English,There would be certain melodies that would go somewhat completely against the test melody by going too high or low,,Unknown,SONA for course credit,,Yes,Male,,8.0,2-3,"Yes, I do alright",drums,Strongly Agree,Strongly Disagree,to see if the general notes were the same,2020-09-22 13:37:42,39771
66,SSS0069,0 2 4 7 9,True,BAAABBABAABBBAB,0.28718326344709516,15,10,0.15087890624999997,1186.5850000032224,1146.2750000064261,1251.4249999946915,1417.5499999839813,0.7659623273869602,1.125,3.125,0.0,0.0,-105.14999998826534,0.9159757876111542,10.0,5.0,1.0,7.0,8.0,1.0,7.0,8.0,1.0,16.0,16.0,16.0,15.0,0.625,0.3125,0.0625,0.4375,0.5,0.0625,0.4375,0.5,0.0625,0.6666666666666666,0.3333333333333333,0.3125,0.3333333333333333,69,20,No,in-ear earbuds,,English,I tried to split the melody into segments and listened for pitch changes in the notes.,,Unknown,SONA for course credit,,Yes,Female,,3.0,0,No,,Strongly Agree,Disagree,I listened to the general pitches of the notes.,2020-09-19 14:34:17,39485
67,SSS0070,0 2 4 7 9,True,ABAABABABBA,1.6329931618554525,11,6,0.5,2782.545000081882,2697.992500034161,2295.839999918826,3374.7425000183284,0.8038803055024107,1.7647058823529411,2.588235294117647,0.0,0.0,402.152500115335,1.1751657346023912,6.0,5.0,6.0,6.0,5.0,6.0,6.0,5.0,6.0,17.0,17.0,17.0,11.0,0.35294117647058826,0.29411764705882354,0.35294117647058826,0.35294117647058826,0.29411764705882354,0.35294117647058826,0.35294117647058826,0.29411764705882354,0.35294117647058826,0.5454545454545454,0.45454545454545453,0.05882352941176472,0.09090909090909088,70,21,No,headphones in-ear,16,English,some notes were higher or lower,,Unknown,SONA for course credit,,Yes,Female,,3.0,1,"Yes, but not so well",piano,Strongly Agree,Strongly Disagree,none,2020-09-17 02:43:51,40034
68,SSS0071,0 2 4 7 9,True,BBBAABAB,0.20597146021777488,8,6,0.14453125,1527.3400000296533,523.0725000146776,8171.809999999823,1707.334999984596,0.799046968107869,1.5384615384615385,2.769230769230769,0.0,0.0,-7648.737499985145,0.06400938103243822,6.0,2.0,5.0,3.0,5.0,5.0,3.0,5.0,5.0,13.0,13.0,13.0,8.0,0.46153846153846156,0.15384615384615385,0.38461538461538464,0.23076923076923078,0.38461538461538464,0.38461538461538464,0.23076923076923078,0.38461538461538464,0.38461538461538464,0.75,0.25,0.3076923076923077,0.5,71,19,No,Apple earpods,10-12,English,Change in pitch or number of beats,,Unknown,SONA for course credit,,Yes,Male,,3.0,2-3,"Yes, but not so well","Acoustic guitar, piano",Agree,Strongly Agree,"Simply sounding ""off"" to me",2020-09-17 04:35:58,39507
69,SSS0072,0 2 4 7 9,True,ABBABABBBA,0.8429272304235247,10,4,0.828125,1144.7499999953434,957.3699999968521,1185.764999997802,1237.5675000036135,0.7687595777457605,1.5625,2.4375,0.0,0.0,-228.39500000094995,0.8073859491540286,4.0,6.0,6.0,4.0,6.0,6.0,4.0,6.0,6.0,16.0,16.0,16.0,10.0,0.25,0.375,0.375,0.25,0.375,0.375,0.25,0.375,0.375,0.4,0.6,-0.125,-0.19999999999999996,72,19,No,airpods ,,Spanish,,,,SONA for course credit,,No,Female,,4.0,0,"Yes, but not so well",Guitar and uquelele,Agree,Disagree,close my eyes and picture the melody,2020-09-26 13:43:18,39855
70,SSS0073,0 2 4 7 9,True,ABBBBBBABBAABABAB,0.6817786549807431,17,11,0.1661529541015625,2237.705000007525,2261.8700000029057,1845.5650000036694,0.0,0.8225862104116857,0.9411764705882353,2.7058823529411766,0.0,0.0,416.3049999992363,1.225570489253106,11.0,6.0,0.0,6.0,11.0,0.0,6.0,11.0,0.0,17.0,17.0,17.0,17.0,0.6470588235294118,0.35294117647058826,0.0,0.35294117647058826,0.6470588235294118,0.0,0.35294117647058826,0.6470588235294118,0.0,0.6470588235294118,0.35294117647058826,0.29411764705882354,0.29411764705882354,73,17,No,macbook speakers in a quiet room ,8-12,English,,,,SONA for course credit,,No,Female,,2.0,4-5,No,,Strongly Agree,Disagree,pitch ,2020-09-17 11:27:02,40113
71,SSS0074,0 2 4 7 9,True,BBBAABBBBBBAA,-1.7539302113940216,13,10,0.046142578125,1104.964999998454,1240.1574999892619,1331.8050000085495,486.89499999489635,0.802020735830505,1.375,2.5625,0.0,0.0,-91.64750001928769,0.9311854963611795,10.0,3.0,3.0,4.0,9.0,3.0,4.0,9.0,3.0,16.0,16.0,16.0,13.0,0.625,0.1875,0.1875,0.25,0.5625,0.1875,0.25,0.5625,0.1875,0.7692307692307693,0.23076923076923078,0.4375,0.5384615384615385,74,21,No,in-ear wired apple earbuds,7-15,Other (please specify below):,"some sounded more melodic and repeated several same notes, while others were random and had many big jumps",,Unknown,SONA for course credit,Mandarin,Yes,Male,,9.0,6-8,"Yes, I do alright","Violin, piano",Strongly Agree,Strongly Agree,"triads, scales, and whether notes were flat",2020-09-19 15:29:15,40020
72,SSS0075,0 2 4 7 9,True,BABBABBB,1.0801234497346435,8,7,0.03515625,2723.0400000000373,2788.565000001341,1694.0649999994785,2905.6025000000373,0.8254530675354703,1.5555555555555556,2.5555555555555554,0.0,0.0,1094.5000000018626,1.6460791055846142,7.0,1.0,10.0,2.0,6.0,10.0,2.0,6.0,10.0,18.0,18.0,18.0,8.0,0.3888888888888889,0.05555555555555555,0.5555555555555556,0.1111111111111111,0.3333333333333333,0.5555555555555556,0.1111111111111111,0.3333333333333333,0.5555555555555556,0.875,0.125,0.33333333333333337,0.75,75,19,No,,,Other (please specify below):,,,,SONA for course credit,Chinese,Yes,Female,,2.0,6-8,"Yes, I do alright",,Agree,Agree,,2020-09-17 15:36:33,39859
73,SSS0076,0 2 4 7 9,True,BBBBBBBABBAABAA,-1.014599312391785,15,7,0.696380615234375,1403.2474999991246,1020.5249999994412,1767.7949999929406,4283.010000014678,0.834746765740933,1.1875,2.1875,0.0,0.0,-747.2699999934994,0.5772869591799482,7.0,8.0,1.0,5.0,10.0,1.0,5.0,10.0,1.0,16.0,16.0,16.0,15.0,0.4375,0.5,0.0625,0.3125,0.625,0.0625,0.3125,0.625,0.0625,0.4666666666666667,0.5333333333333333,-0.0625,-0.06666666666666665,76,21,No,in-ear,,English,,,,SONA for course credit,,No,Female,,2.0,0,"Yes, but not so well",Saxophone,Strongly Agree,Strongly Disagree,,2020-09-17 12:22:33,39516
74,SSS0077,0 2 4 7 9,True,ABABABBABAAABBAB,1.552647508520297,16,16,1.52587890625e-05,381.6050000023097,368.480000004638,0.0,580.2150000235997,0.774860923585583,2.2941176470588234,2.6470588235294117,0.0,0.0,0.0,0.0,16.0,0.0,1.0,8.0,8.0,1.0,8.0,8.0,1.0,17.0,17.0,17.0,16.0,0.9411764705882353,0.0,0.058823529411764705,0.47058823529411764,0.47058823529411764,0.058823529411764705,0.47058823529411764,0.47058823529411764,0.058823529411764705,1.0,0.0,0.9411764705882353,1.0,77,21,Yes,in ear headphones,14-17,English,one off note in the melody that indicated it was different,,,SONA for course credit,,Yes,Female,i didnt realize / wasnt focused enough til the last block when i noted and used this strategy of listening for one off note,9.0,2-3,"Yes, I do alright","guirar, piano, vocals",Strongly Agree,Disagree,"embarrassed to say i didnt catch on til the last block, but there's one note that doesnt fit with the rest. in fact it doesnt even really matter what the originally melody was, as long as you hear that one off note.",2020-09-22 14:18:08,39102
75,SSS0078,0 2 4 7 9,True,ABABABAABBAB,1.816590212458495,12,8,0.19384765625,3759.9750000226777,3113.4675000212155,3501.060000009602,5624.227499967674,0.8016190118868792,1.8333333333333333,2.5,0.0,0.0,-387.5924999883864,0.8892928141798988,8.0,4.0,6.0,6.0,6.0,6.0,6.0,6.0,6.0,18.0,18.0,18.0,12.0,0.4444444444444444,0.2222222222222222,0.3333333333333333,0.3333333333333333,0.3333333333333333,0.3333333333333333,0.3333333333333333,0.3333333333333333,0.3333333333333333,0.6666666666666666,0.3333333333333333,0.2222222222222222,0.3333333333333333,78,19,No,in-ear apple headphones ,middle school ,English,,,,SONA for course credit,,No,Female,,5.0,2-3,No,,Agree,Neither Agree nor Disagree,compare the last notes of the melody ,2020-09-22 15:01:04,39649
76,SSS0079,0 2 4 7 9,True,BBABAABAAABBAAA,-0.11200358417204077,15,12,0.017578125,2262.0899999747053,1674.6049999492243,6993.900000001304,2043.1099999696016,0.7990250578323101,1.6875,2.125,0.0,0.0,-5319.29500005208,0.23943793876791378,12.0,3.0,1.0,9.0,6.0,1.0,9.0,6.0,1.0,16.0,16.0,16.0,15.0,0.75,0.1875,0.0625,0.5625,0.375,0.0625,0.5625,0.375,0.0625,0.8,0.2,0.5625,0.6000000000000001,79,18,Yes,"Headphones, over-ear, Beats Solo",10-16,English,I mostly chose songs that I thought had out of place notes or notes that were too high/low.,,Unknown,SONA for course credit,,Yes,Male,Sometimes I was unable to discern and chose what I thought sounded the most different overall.,4.0,6-8,"Yes, I do alright",Piano and Guitar,Strongly Agree,Agree,I tried to listen for notes that were too high or too low,2020-09-17 13:07:11,39967
77,SSS0080,0 2 4 7 9,True,BABBABAAAABAAAA,0.20291986247835678,15,14,0.00048828125,1278.6699999999255,1155.5525000002235,700.9799999939278,10517.17499998631,0.7887931448567269,1.588235294117647,3.176470588235294,0.0,0.0,454.57250000629574,1.6484814117524516,14.0,1.0,2.0,10.0,5.0,2.0,10.0,5.0,2.0,17.0,17.0,17.0,15.0,0.8235294117647058,0.058823529411764705,0.11764705882352941,0.5882352941176471,0.29411764705882354,0.11764705882352941,0.5882352941176471,0.29411764705882354,0.11764705882352941,0.9333333333333333,0.06666666666666667,0.7647058823529411,0.8666666666666667,80,21,No,Over-the-ear,10-18,English,I noticed there often was a different note prior to a high note,,Unknown,SONA for course credit,,Yes,Male,,7.0,6-8,"Yes, I do alright",Trumpet,Strongly Agree,Agree,"I listened for any out of tune notes, followed by which of the 2nd and 3rd melodies sounded more ""right""",2020-09-17 13:11:37,39752
78,SSS0081,0 2 4 7 9,True,BBBAAABBBABAB,-0.09463204468147697,13,11,0.01123046875,442.76250000251457,341.5850000018254,758.5275000019465,993.300000002142,0.7867780384747064,1.8571428571428572,2.4285714285714284,0.0,0.0,-416.9425000001211,0.45032645487599177,11.0,2.0,1.0,5.0,8.0,1.0,5.0,8.0,1.0,14.0,14.0,14.0,13.0,0.7857142857142857,0.14285714285714285,0.07142857142857142,0.35714285714285715,0.5714285714285714,0.07142857142857142,0.35714285714285715,0.5714285714285714,0.07142857142857142,0.8461538461538461,0.15384615384615385,0.6428571428571428,0.6923076923076923,81,19,No,I used in-ear headphones,,English,Specifically the changes in a lower or higher pitch allowed me to notice the differences,,Unknown,SONA for course credit,,Yes,Female,,7.0,0,No,,Strongly Agree,Strongly Disagree,I paid attention to the beat patterns as well as changes in pitch,2020-09-17 12:23:16,39674
79,SSS0082,0 2 4 7 9,True,BABABAAABABAA,1.7506928266073198,13,7,0.5,2071.7025000192225,2037.8900000359863,2012.4425000101328,3067.8999999649823,0.7987448788350432,1.5,2.75,0.0,0.0,25.447500025853515,1.0126450817977286,7.0,6.0,3.0,8.0,5.0,3.0,8.0,5.0,3.0,16.0,16.0,16.0,13.0,0.4375,0.375,0.1875,0.5,0.3125,0.1875,0.5,0.3125,0.1875,0.5384615384615384,0.46153846153846156,0.0625,0.07692307692307687,82,19,No,airpods pro,7-19,English,,,,SONA for course credit,,No,Female,,10.0,9+,"Yes, I do alright",piano,Strongly Agree,Agree,just listening with thought of scales,2020-09-17 12:41:13,39807
80,SSS0083,0 2 4 7 9,True,AAAAABBBB,-2.4899799195977463,9,4,0.74609375,2491.135000000708,6737.285000002943,1933.3800000026822,2642.61500000488,0.7946405590841836,1.7777777777777777,3.3333333333333335,0.0,0.0,4803.905000000261,3.484718472309425,4.0,5.0,9.0,5.0,4.0,9.0,5.0,4.0,9.0,18.0,18.0,18.0,9.0,0.2222222222222222,0.2777777777777778,0.5,0.2777777777777778,0.2222222222222222,0.5,0.2777777777777778,0.2222222222222222,0.5,0.4444444444444444,0.5555555555555556,-0.05555555555555558,-0.11111111111111116,83,18,No,in-ear,,English,"in the other options parts of the melodies would be played in a different key, changes or deleted.",,Unknown,SONA for course credit,,Yes,Female,,6.0,0,"Yes, but not so well",piano,Strongly Agree,Strongly Disagree,close my eyes and tryinh to relate the melody to a familiar tune to help in memorizing it.,2020-09-19 15:47:44,40041
81,SSS0084,0 2 4 7 9,True,ABABBABBAB,1.5453665891097952,10,6,0.376953125,4070.500000001397,4767.2350000068545,3613.8799999901094,0.0,0.7879523877929275,1.7,2.7,0.0,0.0,1153.3550000167452,1.3191459041307132,6.0,4.0,0.0,4.0,6.0,0.0,4.0,6.0,0.0,10.0,10.0,10.0,10.0,0.6,0.4,0.0,0.4,0.6,0.0,0.4,0.6,0.0,0.6,0.4,0.19999999999999996,0.19999999999999996,84,20,No,headphones,10,Other (please specify below):,cresendo and decresendo,,,Other,chinese,Yes,Female,,1.0,1,"Yes, but not so well",piano,Agree,Disagree,,2020-09-22 15:16:13,40173
82,SSS0085,0 2 4 7 9,True,BABABAABABABBAB,2.4410577393003097,15,12,0.017578125,381.43749999650754,278.93749999743886,663.8050000001676,1518.7199999997392,0.764320952934642,1.625,2.5625,0.0,0.0,-384.8675000027288,0.4202100014271788,12.0,3.0,1.0,7.0,8.0,1.0,7.0,8.0,1.0,16.0,16.0,16.0,15.0,0.75,0.1875,0.0625,0.4375,0.5,0.0625,0.4375,0.5,0.0625,0.8,0.2,0.5625,0.6000000000000001,85,19,No,in-ear earbuds,10-18,English,a difference in pitch/key,,Unknown,SONA for course credit,,Yes,Female,,6.0,6-8,"Yes, I do alright","piano, cello, percussion drums",Agree,Disagree,"change in pitch, off key notes",2020-10-20 21:54:22,39769
83,SSS0086,0 2 4 7 9,True,BBBABBABBB,0.9045340337332907,10,4,0.828125,2328.0100000011735,6116.042500001611,4588.852499999106,2328.0100000011735,0.766939604089743,1.9230769230769231,3.076923076923077,0.0,0.0,1527.1900000025053,1.3328043339817095,4.0,6.0,3.0,2.0,8.0,3.0,2.0,8.0,3.0,13.0,13.0,13.0,10.0,0.3076923076923077,0.46153846153846156,0.23076923076923078,0.15384615384615385,0.6153846153846154,0.23076923076923078,0.15384615384615385,0.6153846153846154,0.23076923076923078,0.4,0.6,-0.15384615384615385,-0.19999999999999996,86,19,No,Jabra earbuds,,English,,,,SONA for course credit,,No,Male,,2.0,0,"Yes, but not so well",Keyboard,Strongly Agree,Neither Agree nor Disagree,See if main parts of the melodies matched,2020-09-22 15:55:45,39695
84,SSS0087,0 2 4 7 9,True,BABAABBABBAAAAABBBAA,-0.41793304320263197,20,19,2.002716064453125e-05,577.5175000014715,511.3699999926612,1501.8700000075623,0.0,0.8193471591466512,1.35,2.35,0.0,0.0,-990.5000000149012,0.340488857218059,19.0,1.0,0.0,11.0,9.0,0.0,11.0,9.0,0.0,20.0,20.0,20.0,20.0,0.95,0.05,0.0,0.55,0.45,0.0,0.55,0.45,0.0,0.95,0.05,0.8999999999999999,0.8999999999999999,87,19,Yes,headphones (in ear),5-18,Other (please specify below):,some keys,,Unknown,SONA for course credit,Chinese,Yes,Female,hard to notice,7.0,6-8,"Yes, but not so well",piano,Agree,Neither Agree nor Disagree,sing out,2020-09-17 13:27:53,40102
85,SSS0088,0 2 4 7 9,True,BAAABBABAABBBBB,-0.6720215050322467,15,8,0.4999999999999999,2416.2900000228547,1852.6175000006333,2544.705000007525,2696.419999992475,0.7712404887322112,1.6111111111111112,3.0,0.0,0.0,-692.0875000068918,0.7280283962169112,8.0,7.0,3.0,6.0,9.0,3.0,6.0,9.0,3.0,18.0,18.0,18.0,15.0,0.4444444444444444,0.3888888888888889,0.16666666666666666,0.3333333333333333,0.5,0.16666666666666666,0.3333333333333333,0.5,0.16666666666666666,0.5333333333333333,0.4666666666666667,0.055555555555555525,0.06666666666666665,88,21,No,in ear,,English,,,,SONA for course credit,,No,Female,,2.0,0,"Yes, but not so well",Saxophone ,Strongly Agree,Strongly Disagree,Tried to listen for whether or not there were slight changes in the note played,2020-09-23 21:01:40,39516
86,SSS0089,0 2 4 7 9,True,ABABBAAB,0.7637626158259734,8,3,0.85546875,4069.2000000271946,3702.254999894649,5613.754999823868,4069.2000000271946,0.8052417780737106,1.9375,2.375,0.0,0.0,-1911.4999999292195,0.6594970745981624,3.0,5.0,8.0,4.0,4.0,8.0,4.0,4.0,8.0,16.0,16.0,16.0,8.0,0.1875,0.3125,0.5,0.25,0.25,0.5,0.25,0.25,0.5,0.375,0.625,-0.125,-0.25,89,19,No,in ear,,Spanish,,,,SONA for course credit,,No,Female,,5.0,0,No,,Strongly Agree,Agree,Hearing the beat and sounds,2020-10-29 21:50:34,39854
87,SSS0090,0 2 4 7 9,True,ABBABBBBBABB,0.4178554470186725,12,8,0.19384765625,802.2249999921769,585.1424998836592,1440.2174999704584,1277.1699998993427,0.7899701287776669,1.3333333333333333,2.388888888888889,0.0,0.0,-855.0750000867993,0.4062875919058486,8.0,4.0,6.0,3.0,9.0,6.0,3.0,9.0,6.0,18.0,18.0,18.0,12.0,0.4444444444444444,0.2222222222222222,0.3333333333333333,0.16666666666666666,0.5,0.3333333333333333,0.16666666666666666,0.5,0.3333333333333333,0.6666666666666666,0.3333333333333333,0.2222222222222222,0.3333333333333333,90,27,No,in-ear,10,Other (please specify below):,"I mostly look for outlier notes (notes that are different from the sample melody), or I sometimes I'll listen to the difference among the melodic progressions",,Unknown,SONA for course credit,Korean,No,Male,,2.0,2-3,"Yes, but not so well",clarinet,Strongly Agree,Strongly Agree,change in pitch,2020-10-18 09:16:23,39948
88,SSS0091,0 2 4 7 9,True,ABABABBAAAAABBABA,0.9144599137184255,17,10,0.3145294189453125,1777.7749999659136,1651.250000053551,1777.7749999659136,0.0,0.7956754464240031,2.0,2.6470588235294117,0.0,0.0,-126.52499991236255,0.9288295763441445,10.0,7.0,0.0,10.0,7.0,0.0,10.0,7.0,0.0,17.0,17.0,17.0,17.0,0.5882352941176471,0.4117647058823529,0.0,0.5882352941176471,0.4117647058823529,0.0,0.5882352941176471,0.4117647058823529,0.0,0.5882352941176471,0.4117647058823529,0.17647058823529416,0.17647058823529416,91,18,No,in-ear headphones (airpods),8-12,English,,,,SONA for course credit,,No,Female,,8.0,4-5,"Yes, I do alright","viola, piano, flute",Strongly Agree,Strongly Disagree,note change,2020-09-23 20:10:21,39604
89,SSS0092,0 2 4 7 9,True,BABABBBAAABABAAA,0.592156525463792,16,11,0.1050567626953125,1777.7575000021607,1665.3650000011548,1748.6600000010803,2191.532499998808,0.7960026695967566,1.7777777777777777,2.8333333333333335,0.0,0.0,-83.2949999999255,0.95236638340222,11.0,5.0,2.0,9.0,7.0,2.0,9.0,7.0,2.0,18.0,18.0,18.0,16.0,0.6111111111111112,0.2777777777777778,0.1111111111111111,0.5,0.3888888888888889,0.1111111111111111,0.5,0.3888888888888889,0.1111111111111111,0.6875,0.3125,0.33333333333333337,0.375,92,20,No,Headphone - Apple airpods,,Other (please specify below):,different pitches and melodies ,,Unknown,SONA for course credit,Hebrew,Yes,Male,,3.0,0,No,,Strongly Agree,Strongly Disagree,Repeat the beats in my head,2020-10-12 20:58:54,40240
90,SSS0093,0 2 4 7 9,True,BAAAAAAAAAAAAB,-1.785013868238542,14,8,0.395263671875,443.509999982547,366.51000000699423,436.10999999498017,1288.3449999787845,0.819915205279835,2.4,2.2,0.0,0.0,-69.59999998798594,0.8404072367320468,8.0,6.0,1.0,12.0,2.0,1.0,12.0,2.0,1.0,15.0,15.0,15.0,14.0,0.5333333333333333,0.4,0.06666666666666667,0.8,0.13333333333333333,0.06666666666666667,0.8,0.13333333333333333,0.06666666666666667,0.5714285714285714,0.42857142857142855,0.1333333333333333,0.14285714285714285,93,20,No,headphones,10,Other (please specify below):,the crescendo and decrescendo in music ,,Unknown,Other,chinese,No,Female,,1.0,1,"Yes, but not so well",piano,Agree,Disagree,crescendo and decresendo,2020-09-21 14:20:45,40173
91,SSS0094,0 2 4 7 9,True,BBBABABAAAAABAB,0.28718326344709516,15,14,0.00048828125,555.155000009574,485.65499999700114,705.6750000333413,0.0,0.7557691833258368,1.2666666666666666,2.8666666666666667,0.0,0.0,-220.0200000363402,0.6882134126532117,14.0,1.0,0.0,8.0,7.0,0.0,8.0,7.0,0.0,15.0,15.0,15.0,15.0,0.9333333333333333,0.06666666666666667,0.0,0.5333333333333333,0.4666666666666667,0.0,0.5333333333333333,0.4666666666666667,0.0,0.9333333333333333,0.06666666666666667,0.8666666666666667,0.8666666666666667,94,21,No,Over-the-ear headphones ,6-18,Other (please specify below):,,,,SONA for course credit,French,No,Female,,7.0,9+,"Yes, I do alright",Piano,Agree,Neither Agree nor Disagree,listening attentively ,2020-09-19 18:11:40,40077
92,SSS0095,0 2 4 7 9,True,BAAAABAABBBAABAB,0.0657951694959769,16,11,0.1050567626953125,1206.3574999999255,1334.1149999997579,667.7499999995343,0.0,0.7502074678035802,2.25,2.25,0.0,0.0,666.3650000002235,1.9979258704615324,11.0,5.0,0.0,9.0,7.0,0.0,9.0,7.0,0.0,16.0,16.0,16.0,16.0,0.6875,0.3125,0.0,0.5625,0.4375,0.0,0.5625,0.4375,0.0,0.6875,0.3125,0.375,0.375,95,18,No,over the ear headphones,14-17,English,only a few off tune notes,,,SONA for course credit,,Yes,Male,,3.0,2-3,"Yes, I do alright","Clarinet, guiatr",Agree,Agree,To find flat or sharper notes than the others,2020-10-01 17:05:54,39579
93,SSS0096,0 2 4 7 9,True,AABABABBBABABBAABABB,1.439547148809065,20,15,0.020694732666015625,1171.5699999984354,1083.0850000055507,1524.8250000001863,0.0,0.7753314439075523,1.4,2.9,0.0,0.0,-441.7399999946356,0.7103011821064177,15.0,5.0,0.0,9.0,11.0,0.0,9.0,11.0,0.0,20.0,20.0,20.0,20.0,0.75,0.25,0.0,0.45,0.55,0.0,0.45,0.55,0.0,0.75,0.25,0.5,0.5,96,19,No,through airpods (newest version),,English,"Though i am not musically experienced, I often notice the shifts in songs. For example how the music changes when reaching the chorus orbridge. ",,Unknown,SONA for course credit,,Yes,Female,,7.0,0,No,,Agree,Agree,,2020-09-19 22:06:06,40000
94,SSS0097,0 2 4 7 9,True,AAABAABAABBAAAB,0.20291986247835678,15,9,0.30361938476562494,1476.7100000753999,1440.809999940917,1587.1049999836832,0.0,0.7960063202981714,1.6666666666666667,2.3333333333333335,0.0,0.0,-146.29500004276633,0.907822733817693,9.0,6.0,0.0,10.0,5.0,0.0,10.0,5.0,0.0,15.0,15.0,15.0,15.0,0.6,0.4,0.0,0.6666666666666666,0.3333333333333333,0.0,0.6666666666666666,0.3333333333333333,0.0,0.6,0.4,0.19999999999999996,0.19999999999999996,97,19,No,"In-ear headphones, Airpod Pro (most recent version)",5-14,English,"The beginning of Options 1 and 2 always sounded the same as the test melody, so I focused on the latter parts of the melodies.",,Unknown,SONA for course credit,,Yes,Female,,6.0,9+,"Yes, I do alright","Piano, Ukulele",Strongly Agree,Neither Agree nor Disagree,I tried to follow how the patterns in terms of how high or low the notes were.,2020-09-19 22:16:48,40156
95,SSS0098,0 2 4 7 9,True,BAABBAAABBAB,0.0,12,12,0.000244140625,562.8774999929592,543.7324999948032,0.0,1303.562499990221,0.7989184170265552,1.1428571428571428,2.642857142857143,0.0,0.0,0.0,0.0,12.0,0.0,2.0,6.0,6.0,2.0,6.0,6.0,2.0,14.0,14.0,14.0,12.0,0.8571428571428571,0.0,0.14285714285714285,0.42857142857142855,0.42857142857142855,0.14285714285714285,0.42857142857142855,0.42857142857142855,0.14285714285714285,1.0,0.0,0.8571428571428571,1.0,98,20,Yes,"earphones, in-ear, Samsung",12,English,"There were some obvious wrong notes, which made the triplet-chords sound different",,Unknown,SONA for course credit,,Yes,Male,"I started with listening to triplets around mid-block 1, then changed to broken chords around mid-block 7",5.0,1,"Yes, I do alright",Piano,Strongly Agree,Agree,I listened to each melody in triplets and broken chords,2020-09-17 14:44:55,39894
96,SSS0099,0 2 4 7 9,True,ABABABBABBABBA,1.7880588557272705,14,9,0.21197509765625,641.0050000473857,623.9700000882149,989.7449999004602,0.0,0.7686853191145497,2.0,2.7142857142857144,0.0,0.0,-365.77499981224537,0.6304351122268547,9.0,5.0,0.0,6.0,8.0,0.0,6.0,8.0,0.0,14.0,14.0,14.0,14.0,0.6428571428571429,0.35714285714285715,0.0,0.42857142857142855,0.5714285714285714,0.0,0.42857142857142855,0.5714285714285714,0.0,0.6428571428571429,0.35714285714285715,0.28571428571428575,0.28571428571428575,99,18,No,"I used the default Apple earbuds (in-ear), like the ones that come inside the 'new iPhone' box (specfically iPhone 7)",16-17,English,Some options had very similar notes but they were slightly different (some were slightly lower or higher notes) and others were completely off (different note in general) ,,Unknown,SONA for course credit,,Yes,Other,,2.0,1,"Yes, but not so well",Piano,Agree,Agree,Mainly used similarities in note pitch (high vs low) ,2020-10-01 23:29:56,39933
97,SSS0100,0 2 4 7 9,True,BABBBAABBABBBA,0.34876557585373114,14,11,0.0286865234375,1739.535000000149,1419.980000006035,1739.535000000149,2458.5649999938905,0.770763484767329,1.3333333333333333,2.8,0.0,0.0,-319.55499999411404,0.8162986085395887,11.0,3.0,1.0,5.0,9.0,1.0,5.0,9.0,1.0,15.0,15.0,15.0,14.0,0.7333333333333333,0.2,0.06666666666666667,0.3333333333333333,0.6,0.06666666666666667,0.3333333333333333,0.6,0.06666666666666667,0.7857142857142857,0.21428571428571427,0.5333333333333332,0.5714285714285714,100,18,No,in- ear,8-12,Other (please specify below):,beats,,Unknown,SONA for course credit,Fula,Yes,Female,,0.0,0,"Yes, I do alright",violin,Agree,Neither Agree nor Disagree,the space bar to count the beats ,2020-09-30 18:36:12,39804
98,SSS0101,0 2 4 7 9,True,BAABBBABABABB,1.135584536177721,13,11,0.01123046875,609.5699998550117,469.8199999984354,1757.0099999429658,0.0,0.7729615979541969,1.3846153846153846,2.6153846153846154,0.0,0.0,-1287.1899999445304,0.26739745363639716,11.0,2.0,0.0,5.0,8.0,0.0,5.0,8.0,0.0,13.0,13.0,13.0,13.0,0.8461538461538461,0.15384615384615385,0.0,0.38461538461538464,0.6153846153846154,0.0,0.38461538461538464,0.6153846153846154,0.0,0.8461538461538461,0.15384615384615385,0.6923076923076923,0.6923076923076923,101,20,No,over-the-ear MPOW S/N: 18A143,"4-14, 14-16",English,I listened to the key changes and whether a note was higher or lower than I expected,,Unknown,SONA for course credit,chinese ,Yes,Female,"2, I noticed that the change never happened at the beginning or end, so I focused more on the middle fluctuations",6.0,9+,"Yes, I do alright",Electric bass guitar,Strongly Agree,Strongly Agree,If they sounded off,2020-09-30 00:59:42,39888
99,SSS0102,0 2 4 7 9,True,ABABBABABBBA,1.3533392381794225,12,9,0.072998046875,1672.6899999193847,1017.3750000540167,2171.949999872595,1953.9699999149889,0.7825310827800026,1.8,2.7333333333333334,0.0,0.0,-1154.5749998185784,0.4684154792300445,9.0,3.0,3.0,5.0,7.0,3.0,5.0,7.0,3.0,15.0,15.0,15.0,12.0,0.6,0.2,0.2,0.3333333333333333,0.4666666666666667,0.2,0.3333333333333333,0.4666666666666667,0.2,0.75,0.25,0.39999999999999997,0.5,102,19,No,"sony earbuds, in-ear, ",13-17,Spanish,the beginnings and ends of the melodies and using any noticeable patterns (octaves),,Unknown,SONA for course credit,,Yes,Male,,4.0,4-5,"Yes, I do alright","guitar, bass, saxophone",Strongly Agree,Agree,visualizing the notes,2020-09-19 18:22:31,39693
100,SSS0103,0 2 4 7 9,True,AAABBAAABBAA,-0.9198662110077996,12,9,0.072998046875,1434.8050000118092,931.7250000019558,4839.980000004638,1489.8499999982305,0.7548686370045262,1.8823529411764706,2.411764705882353,0.0,0.0,-3908.255000002682,0.19250596076865253,9.0,3.0,5.0,8.0,4.0,5.0,8.0,4.0,5.0,17.0,17.0,17.0,12.0,0.5294117647058824,0.17647058823529413,0.29411764705882354,0.47058823529411764,0.23529411764705882,0.29411764705882354,0.47058823529411764,0.23529411764705882,0.29411764705882354,0.75,0.25,0.3529411764705882,0.5,103,20,Yes,"in ear earphones (Apple, plug in) ",12-17,English,,,,SONA for course credit,,No,Female,I was very disoriented at the beginning and then I started trying to hold onto one note (usually highest or lowest) and just track that. I also started to pay attention to key and if the original melody sounded like it stayed in the same major or minor key then I could track if it changed in the next two.,8.0,4-5,"Yes, I do alright",Piano and guitar,Strongly Agree,Strongly Agree,Trying to remember the placement and repetition of the same note (usually the highest or lowest one),2020-09-19 18:50:41,39534
101,SSS0104,0 2 4 7 9,True,AAABBAAAABABB,-0.7097403351110759,13,10,0.046142578125,1345.4049999127164,851.1975000146776,1345.4049999127164,2945.5075000296347,0.8051651940218576,1.2666666666666666,3.1333333333333333,0.0,0.0,-494.2074998980388,0.6326700882410125,10.0,3.0,2.0,8.0,5.0,2.0,8.0,5.0,2.0,15.0,15.0,15.0,13.0,0.6666666666666666,0.2,0.13333333333333333,0.5333333333333333,0.3333333333333333,0.13333333333333333,0.5333333333333333,0.3333333333333333,0.13333333333333333,0.7692307692307693,0.23076923076923078,0.4666666666666666,0.5384615384615385,104,20,No,headphones,10-14,Other (please specify below):,,,,SONA for course credit,portuguese,No,Female,,6.0,2-3,"Yes, but not so well",piano and guitar,Strongly Agree,Disagree,,2020-09-19 18:19:03,39959
102,SSS0105,0 2 4 7 9,True,ABBAAABAAAABABAAB,0.6817786549807431,17,14,0.0063629150390625,945.5200000666082,856.7799999727868,1692.5150000024587,0.0,0.7678487816262295,1.6470588235294117,2.4705882352941178,0.0,0.0,-835.7350000296719,0.5062170793000607,14.0,3.0,0.0,11.0,6.0,0.0,11.0,6.0,0.0,17.0,17.0,17.0,17.0,0.8235294117647058,0.17647058823529413,0.0,0.6470588235294118,0.35294117647058826,0.0,0.6470588235294118,0.35294117647058826,0.0,0.8235294117647058,0.17647058823529413,0.6470588235294117,0.6470588235294117,105,19,Yes,Over-ear headphones.,9-14,English,"Sometimes, a specific note or few notes would be different or in a different place. If I had remembered the sequence of the original melody, I could use this particular note to distinguish the melodies.",,Unknown,SONA for course credit,,Yes,Male,"At first I simply tried to listen to the tunes, but due to their complexity and randomness, it was difficult to do this. I tried my best to remember specific groupings of patterns.",5.0,4-5,"Yes, but not so well",Piano,Strongly Agree,Agree,I tried to listen for a recognizable tune or part of the melody that would sometimes distinguish the melodies.,2020-09-26 19:09:41,39550
103,SSS0106,0 2 4 7 9,True,BAAAAAABA,-0.12262786789699272,9,6,0.25390625,1937.2199999997392,2089.7375000002794,259.85999999847263,2532.482500000857,0.7875125620654607,1.6470588235294117,2.5294117647058822,0.0,0.0,1829.8775000018068,8.041782113494044,6.0,3.0,8.0,7.0,2.0,8.0,7.0,2.0,8.0,17.0,17.0,17.0,9.0,0.35294117647058826,0.17647058823529413,0.47058823529411764,0.4117647058823529,0.11764705882352941,0.47058823529411764,0.4117647058823529,0.11764705882352941,0.47058823529411764,0.6666666666666666,0.3333333333333333,0.17647058823529413,0.3333333333333333,106,18,Yes,"in ear headphones, AirPods Pro",,English,highest and lowest notes stuck out the most,,Unknown,SONA for course credit,,Yes,Male,focusing on the big picture,1.0,0,No,,Strongly Agree,Disagree,no strategy,2020-09-26 19:13:11,39872
104,SSS0107,0 2 4 7 9,True,BBBBABABBABB,1.2535663410560174,12,5,0.80615234375,3134.405000018887,1670.105000026524,3685.9349999576807,0.0,0.7900314115011501,1.5,3.0,0.0,0.0,-2015.8299999311566,0.4531021301367764,5.0,7.0,0.0,3.0,9.0,0.0,3.0,9.0,0.0,12.0,12.0,12.0,12.0,0.4166666666666667,0.5833333333333334,0.0,0.25,0.75,0.0,0.25,0.75,0.0,0.4166666666666667,0.5833333333333334,-0.16666666666666669,-0.16666666666666669,107,19,No,in ear,7-14,Other (please specify below):,pitches,,Unknown,SONA for course credit,Chinese,Yes,Female,,5.0,6-8,"Yes, I do alright",piano,Strongly Agree,Neither Agree nor Disagree,high note and low note ,2020-09-30 00:24:22,39286
105,SSS0108,0 2 4 7 9,True,BABABBAABBABBBBB,0.6855795667606845,16,10,0.2272491455078125,1961.0450000036508,1402.2675000014715,2690.385000023525,1358.8549999985844,0.8007429646653532,2.0,2.764705882352941,0.0,0.0,-1288.1175000220537,0.5212144358481071,10.0,6.0,1.0,5.0,11.0,1.0,5.0,11.0,1.0,17.0,17.0,17.0,16.0,0.5882352941176471,0.35294117647058826,0.058823529411764705,0.29411764705882354,0.6470588235294118,0.058823529411764705,0.29411764705882354,0.6470588235294118,0.058823529411764705,0.625,0.375,0.23529411764705882,0.25,108,18,No,over the ear headphones beats,,English,different notes,,Unknown,SONA for course credit,,Yes,Female,,8.0,0,"Yes, I do alright","flute, guitar, ukelele, piano",Strongly Agree,Strongly Disagree,,2020-09-17 19:01:38,40126
106,SSS0109,0 2 4 7 9,False,BBBBBBBBBBABBBBBBBB,0.34299717028501875,19,11,0.3238029479980469,3424.84000002034,1736.9000000171363,8150.759999990463,0.0,0.7812071039022911,1.631578947368421,2.8947368421052633,0.0,0.0,-6413.859999973327,0.21309669282608842,11.0,8.0,0.0,1.0,18.0,0.0,1.0,18.0,0.0,19.0,19.0,19.0,19.0,0.5789473684210527,0.42105263157894735,0.0,0.05263157894736842,0.9473684210526315,0.0,0.05263157894736842,0.9473684210526315,0.0,0.5789473684210527,0.42105263157894735,0.1578947368421053,0.1578947368421053,109,20,No,over-the-ear,,Other (please specify below):,,,,SONA for course credit,Korean,No,Female,,3.0,0,"Yes, but not so well",Clarinet,Neither Agree nor Disagree,Neither Agree nor Disagree,,2020-09-26 22:45:00,40093
107,SSS0110,0 2 4 7 9,True,BBAAAABABBA,-0.2916059217599019,11,10,0.005859375,520.9650001488626,464.227500022389,970.1749999076128,0.0,0.7973244825058686,1.5454545454545454,2.6363636363636362,0.0,0.0,-505.9474998852238,0.4784987245255713,10.0,1.0,0.0,6.0,5.0,0.0,6.0,5.0,0.0,11.0,11.0,11.0,11.0,0.9090909090909091,0.09090909090909091,0.0,0.5454545454545454,0.45454545454545453,0.0,0.5454545454545454,0.45454545454545453,0.0,0.9090909090909091,0.09090909090909091,0.8181818181818181,0.8181818181818181,110,17,Yes,Apple Airpods (in-ear),12,Spanish,They usually changed just one note,,Unknown,SONA for course credit,,Yes,Female,"3, it was no longer one note but the pitch ",6.0,1,"Yes, but not so well",Piano and guitar(poorly),Strongly Agree,Agree,Find a wrong note,2020-09-17 20:48:13,39786
108,SSS0111,0 2 4 7 9,True,BABBBABBABABAAA,0.8256518824103988,15,12,0.017578125,1103.5524999024346,916.4200000232086,1026.3149999082088,2235.3700001258403,0.8133311361443573,1.6111111111111112,2.611111111111111,0.0,0.0,-109.89499988500029,0.8929227382481704,12.0,3.0,3.0,7.0,8.0,3.0,7.0,8.0,3.0,18.0,18.0,18.0,15.0,0.6666666666666666,0.16666666666666666,0.16666666666666666,0.3888888888888889,0.4444444444444444,0.16666666666666666,0.3888888888888889,0.4444444444444444,0.16666666666666666,0.8,0.2,0.5,0.6000000000000001,111,20,No,in-ear,,Other (please specify below):,high peach,,Unknown,SONA for course credit,chinese,Yes,Male,,0.0,0,No,,Strongly Agree,Strongly Agree,,2020-09-17 20:49:10,38920
109,SSS0112,0 2 4 7 9,True,BAABAAAAABABBBBAB,-0.23662840251096373,17,7,0.8338470458984375,2105.595000001136,1816.6550000021234,2167.5324999995064,0.0,0.8002405080218087,1.588235294117647,2.764705882352941,0.0,0.0,-350.877499997383,0.838121227710559,7.0,10.0,0.0,9.0,8.0,0.0,9.0,8.0,0.0,17.0,17.0,17.0,17.0,0.4117647058823529,0.5882352941176471,0.0,0.5294117647058824,0.47058823529411764,0.0,0.5294117647058824,0.47058823529411764,0.0,0.4117647058823529,0.5882352941176471,-0.17647058823529416,-0.17647058823529416,112,19,No,in-ear earphones,15,Other (please specify below):,"I would listen to see if there was a progression up a scale and followed by a note in a different key/or a contrasting note to that of the sequence that was just played. By listening to specific features, I tried to remember the original melodies in its entirety.",,Unknown,SONA for course credit,Chinese,No,Male,,2.0,1,No,,Agree,Agree,position where different pitch of the sound appears,2020-10-01 18:48:04,39832
110,SSS0113,0 2 4 7 9,True,BBAABAAABABAABB,0.28718326344709516,15,12,0.017578125,409.64499999955297,395.47749999933876,1155.070000000298,0.0,0.7953843607358764,1.4,2.6,0.0,0.0,-759.5925000009593,0.34238401135795815,12.0,3.0,0.0,8.0,7.0,0.0,8.0,7.0,0.0,15.0,15.0,15.0,15.0,0.8,0.2,0.0,0.5333333333333333,0.4666666666666667,0.0,0.5333333333333333,0.4666666666666667,0.0,0.8,0.2,0.6000000000000001,0.6000000000000001,113,19,Yes,In-ear,4--16,Other (please specify below):,"There is usually only one note changed, and there is usually half note interval.",,Unknown,SONA for course credit,Chinese,Yes,Female,"in the blocks 4-6, i found there are a lot of # and b notes so it would be hard for me to tell which particular note is different. I did not find a very useful strategy but I was trying to remember the approximate interval between each note. ",7.0,6-8,"Yes, I am near professional","Guzheng, Guitar, Piano",Strongly Agree,Neither Agree nor Disagree,If there is # and b notes in the melodies; the interval.,2020-09-19 18:43:01,40022
111,SSS0114,0 2 4 7 9,True,ABAABAAAAABABAA,1.4938645796444583,15,7,0.696380615234375,3335.332499933429,1819.0250000916421,3523.685000021942,4629.650000017136,0.8014329849935709,1.1875,2.0,0.0,0.0,-1704.6599999302998,0.5162280397028438,7.0,8.0,1.0,11.0,4.0,1.0,11.0,4.0,1.0,16.0,16.0,16.0,15.0,0.4375,0.5,0.0625,0.6875,0.25,0.0625,0.6875,0.25,0.0625,0.4666666666666667,0.5333333333333333,-0.0625,-0.06666666666666665,114,17,No,Headphones,13-17,Other (please specify below):,"The melodies would collide and have more or less dissonance between the pitches at times, less random tone.",,Unknown,SONA for course credit,Mandarin,No,Male,,8.0,6-8,"Yes, I do alright",Violin,Agree,Agree,Listening to changes in pitch and tone in comparison with the original,2020-09-27 11:54:10,39781
112,SSS0115,0 2 4 7 9,True,ABABABBABBABBB,1.5694450913417906,14,11,0.0286865234375,1101.577499997802,898.8849999732338,1650.7199999759905,4503.320000017993,0.829827778686579,1.1875,2.8125,0.0,0.0,-751.8350000027567,0.54454116990544,11.0,3.0,2.0,5.0,9.0,2.0,5.0,9.0,2.0,16.0,16.0,16.0,14.0,0.6875,0.1875,0.125,0.3125,0.5625,0.125,0.3125,0.5625,0.125,0.7857142857142857,0.21428571428571427,0.5,0.5714285714285714,115,19,Yes,In-ear Airpods.,,English,,,,SONA for course credit,,No,Female,I tried free drawing how i saw the melodies on a piece of paper but that didn't help much.,3.0,0,No,,Strongly Agree,Agree,Noted the change in pitch toward the end of the melody to compare. ,2020-09-26 19:33:51,40185
113,SSS0116,0 2 4 7 9,True,ABABAAABBABBAAABABB,0.7227449401048793,19,14,0.0317840576171875,1215.2900001965463,859.5075001940131,1608.8000000454485,0.0,0.789553490868682,1.5789473684210527,2.3157894736842106,0.0,0.0,-749.2924998514354,0.5342537917514496,14.0,5.0,0.0,10.0,9.0,0.0,10.0,9.0,0.0,19.0,19.0,19.0,19.0,0.7368421052631579,0.2631578947368421,0.0,0.5263157894736842,0.47368421052631576,0.0,0.5263157894736842,0.47368421052631576,0.0,0.7368421052631579,0.2631578947368421,0.47368421052631576,0.47368421052631576,116,20,No,Apple airpods ,13-17,English,I listened for high notes and low notes that could help distinguish a melody from one another. ,,,SONA for course credit,Mandarin,Yes,Female,,2.0,0,"Yes, but not so well",Violin,Strongly Agree,Neither Agree nor Disagree,"I compared the audio to option 1 and if it matched, I knew option 2 would be more different",2020-11-09 23:17:19,39916
114,SSS0117,0 2 4 7 9,True,BAAAABAABBAABAB,0.4480143366881651,15,12,0.017578125,4187.815000001341,4096.437500000233,5228.680000000168,2415.9674999993294,0.7428625633129802,1.8823529411764706,2.1176470588235294,0.0,0.0,-1132.2424999999348,0.7834553845330182,12.0,3.0,2.0,9.0,6.0,2.0,9.0,6.0,2.0,17.0,17.0,17.0,15.0,0.7058823529411765,0.17647058823529413,0.11764705882352941,0.5294117647058824,0.35294117647058826,0.11764705882352941,0.5294117647058824,0.35294117647058826,0.11764705882352941,0.8,0.2,0.5294117647058824,0.6000000000000001,117,18,No,I used in-ear headphones. They are Apple Airpods. ,10-18,English,"Sometimes some of the notes would be different but part of the melody would be in the two options. Other times, there was one or two notes that made the two melodies different.",,Unknown,SONA for course credit,,Yes,Female,,8.0,6-8,"Yes, I do alright",Flute and Piano,Agree,Disagree,"I clapped my hands to a steady beat, as if I had a metronome with me. ",2020-09-23 21:27:28,39601
115,SSS0118,0 2 4 7 9,True,ABBBAABBA,-0.32128773156099966,9,5,0.5,1703.2675000373274,289.3649998586625,2091.9499999145046,2188.6299999896437,0.8124639239364576,1.0714285714285714,3.7142857142857144,0.0,0.0,-1802.585000055842,0.13832309561437342,5.0,4.0,5.0,4.0,5.0,5.0,4.0,5.0,5.0,14.0,14.0,14.0,9.0,0.35714285714285715,0.2857142857142857,0.35714285714285715,0.2857142857142857,0.35714285714285715,0.35714285714285715,0.2857142857142857,0.35714285714285715,0.35714285714285715,0.5555555555555556,0.4444444444444444,0.07142857142857145,0.11111111111111116,118,17,No,over-the-ear headphones,7-16,English,I noticed the immediate off key ,,Unknown,SONA for course credit,,Yes,Female,some of them sounded very similar ,7.0,1,"Yes, but not so well",violin,Strongly Agree,Strongly Disagree,if the tune sounded similar,2020-10-01 21:16:00,39966
116,SSS0119,0 2 4 7 9,False,BABBBBBABBBABABAAAB,0.5899445023218287,19,17,0.0003643035888671875,664.9949999991804,664.9949999991804,594.8950000456534,0.0,0.8348444650890765,2.1052631578947367,2.6842105263157894,0.0,0.0,70.099999953527,1.1178359205374855,17.0,2.0,0.0,7.0,12.0,0.0,7.0,12.0,0.0,19.0,19.0,19.0,19.0,0.8947368421052632,0.10526315789473684,0.0,0.3684210526315789,0.631578947368421,0.0,0.3684210526315789,0.631578947368421,0.0,0.8947368421052632,0.10526315789473684,0.7894736842105263,0.7894736842105263,119,27,No,over-the-ear,,Other (please specify below):,,,,SONA for course credit,Korean,No,Male,,0.0,0,No,,Neither Agree nor Disagree,Neither Agree nor Disagree,,2020-09-17 22:26:33,38688
117,SSS0120,0 2 4 7 9,True,ABBABBBBAAABA,-0.269136782409754,13,6,0.70947265625,1844.4175000186078,1535.835000002291,1158.8150000022724,3947.3699999796227,0.8234694797474087,2.111111111111111,2.111111111111111,0.0,0.0,377.0200000000186,1.325349602826404,6.0,7.0,5.0,6.0,7.0,5.0,6.0,7.0,5.0,18.0,18.0,18.0,13.0,0.3333333333333333,0.3888888888888889,0.2777777777777778,0.3333333333333333,0.3888888888888889,0.2777777777777778,0.3333333333333333,0.3888888888888889,0.2777777777777778,0.46153846153846156,0.5384615384615384,-0.05555555555555558,-0.07692307692307687,120,17,Yes,in-ear,,English,the pitches would differ,,Unknown,SONA for course credit,,,Female,"5, I just chose ""A"" if the first melody was very different than the original and if not I would choose either ""L"" or ""G""",2.0,0,No,,Agree,Strongly Agree,try to keep track of the times it increased and/or decreased while also keeping in mind the pitch,2020-09-17 23:16:31,39548
118,SSS0121,0 2 4 7 9,True,AAABAAAAA,0.534522483824849,9,5,0.5,644.4400000034366,490.7249999814667,456.5250000017695,1953.4899999853224,0.816463896074211,1.0,2.6875,0.0,0.0,34.19999997969717,1.074913750571304,5.0,4.0,7.0,8.0,1.0,7.0,8.0,1.0,7.0,16.0,16.0,16.0,9.0,0.3125,0.25,0.4375,0.5,0.0625,0.4375,0.5,0.0625,0.4375,0.5555555555555556,0.4444444444444444,0.0625,0.11111111111111116,121,19,Yes,"in ear, noice cancelling ",8-10,English,I focused on the ups and downs of the melodies.,,Unknown,SONA for course credit,Mandarin,No,Male,"Some melodies have the same ups and downs, so I had to pay attention to any particular notes that don't appear in the other two melodies.",3.0,1,No,"Saxophone, trombone",Strongly Agree,Strongly Agree,Close my eyes,2020-09-26 20:31:25,40109
119,SSS0122,0 2 4 7 9,True,ABBABABAABABABBBA,1.7747130188322275,17,12,0.0717315673828125,839.7699999916367,823.5774999922141,888.6950000012293,0.0,0.8212752496743332,1.3529411764705883,2.764705882352941,0.0,0.0,-65.1175000090152,0.9267268297797049,12.0,5.0,0.0,8.0,9.0,0.0,8.0,9.0,0.0,17.0,17.0,17.0,17.0,0.7058823529411765,0.29411764705882354,0.0,0.47058823529411764,0.5294117647058824,0.0,0.47058823529411764,0.5294117647058824,0.0,0.7058823529411765,0.29411764705882354,0.411764705882353,0.411764705882353,122,19,No,in-ear,7-10,Other (please specify below):,,,,SONA for course credit,Chinese,No,Female,,5.0,2-3,"Yes, I do alright",Piano,Strongly Agree,Agree,,2020-09-17 23:50:25,39962
120,SSS0123,0 2 4 7 9,True,ABAABAAABABABAA,2.0291986247835694,15,8,0.4999999999999999,1473.5625000032596,1200.7750000192318,3430.104999977164,6731.995000008959,0.8145513498170563,1.5625,2.3125,0.0,0.0,-2229.329999957932,0.3500694585230557,8.0,7.0,1.0,10.0,5.0,1.0,10.0,5.0,1.0,16.0,16.0,16.0,15.0,0.5,0.4375,0.0625,0.625,0.3125,0.0625,0.625,0.3125,0.0625,0.5333333333333333,0.4666666666666667,0.0625,0.06666666666666665,123,18,No,Apple airpods,14,English,i listened to the beats,,Unknown,SONA for course credit,,No,Female,,2.0,1,"Yes, I do alright",drums,Strongly Agree,Neither Agree nor Disagree,listened to beats and repetition as well as pitch,2020-10-18 02:29:12,39552
121,SSS0124,0 2 4 7 9,True,BABBABAABABAAAAB,1.1185178814316072,16,16,1.52587890625e-05,445.5499999895692,445.5499999895692,0.0,0.0,0.8261049998961132,1.0,2.8125,0.0,0.0,0.0,0.0,16.0,0.0,0.0,9.0,7.0,0.0,9.0,7.0,0.0,16.0,16.0,16.0,16.0,1.0,0.0,0.0,0.5625,0.4375,0.0,0.5625,0.4375,0.0,1.0,0.0,1.0,1.0,124,19,No,Airpods.,,Other (please specify below):,change of tone; wrong sound(particularly in the last block); exchange two syllables.,,Unknown,SONA for course credit,Chinese,Yes,Male,,7.0,0,"Yes, I am near professional",drums; piano; (and a very little bit of cello),Agree,Agree,"separate the melody into 4 beats per measure, 3 measures in total. (Try to) check if there were change of tones or wrong sound",2020-09-18 01:06:38,39570
122,SSS0125,0 2 4 7 9,True,ABBBABBAAAAB,-0.6055300708194983,12,6,0.61279296875,1015.7400000030175,875.8024999988265,970.9425000001211,1597.0299999970011,0.8107042950211629,1.4736842105263157,2.210526315789474,0.0,0.0,-95.14000000129454,0.9020127350473559,6.0,6.0,7.0,6.0,6.0,7.0,6.0,6.0,7.0,19.0,19.0,19.0,12.0,0.3157894736842105,0.3157894736842105,0.3684210526315789,0.3157894736842105,0.3157894736842105,0.3684210526315789,0.3157894736842105,0.3157894736842105,0.3684210526315789,0.5,0.5,0.0,0.0,125,21,No,in-ear headphones,13,Other (please specify below):,"It is pretty hard to identity the difference, and I dont know if I am right or wrong",,Unknown,SONA for course credit,Chinese,Yes,Male,,3.0,2-3,"Yes, but not so well",trumpet,Strongly Agree,Strongly Agree,the first and last tone of the melodies.,2020-09-18 05:20:25,38565
123,SSS0126,0 2 4 7 9,True,ABAAABAAAABABBA,0.8116794499134276,15,10,0.15087890624999997,1463.4850000729784,1355.4449999937788,1463.4850000729784,0.0,0.8218772400775656,1.8,2.4,0.0,0.0,-108.04000007919967,0.9261762163098275,10.0,5.0,0.0,10.0,5.0,0.0,10.0,5.0,0.0,15.0,15.0,15.0,15.0,0.6666666666666666,0.3333333333333333,0.0,0.6666666666666666,0.3333333333333333,0.0,0.6666666666666666,0.3333333333333333,0.0,0.6666666666666666,0.3333333333333333,0.3333333333333333,0.3333333333333333,126,24,No,logitech over ear headset,8-13,English,patterns of notes going up and down,,Unknown,SONA for course credit,,Yes,Female,,8.0,4-5,"Yes, but not so well","guitar, piano",Strongly Agree,Agree,memory,2020-09-18 08:35:35,39471
124,SSS0127,0 2 4 7 9,True,ABBAAAAAABABBBBA,-0.9869275424396534,16,14,0.0020904541015625,1121.209999983199,1021.4825000003912,1437.764999995241,3907.4199999738485,0.7908554878342919,1.588235294117647,2.7058823529411766,0.0,0.0,-416.2824999948498,0.7104655489622937,14.0,2.0,1.0,9.0,7.0,1.0,9.0,7.0,1.0,17.0,17.0,17.0,16.0,0.8235294117647058,0.11764705882352941,0.058823529411764705,0.5294117647058824,0.4117647058823529,0.058823529411764705,0.5294117647058824,0.4117647058823529,0.058823529411764705,0.875,0.125,0.7058823529411764,0.75,127,19,No,Headphones,7-12,English,,,,SONA for course credit,,No,Female,,5.0,4-5,"Yes, I do alright","Piano, Guitar",Strongly Agree,Agree,Listen to the middle of melodies for changes.,2020-09-18 08:03:14,39480
125,SSS0128,0 2 4 7 9,True,AABBABBBAABABAAB,0.5175491695067657,16,12,0.0384063720703125,612.2550000003539,384.84250000002794,855.4775000000373,652.600000000326,0.7901926405390576,1.1111111111111112,2.2777777777777777,0.0,0.0,-470.6350000000093,0.44985695123484976,12.0,4.0,2.0,8.0,8.0,2.0,8.0,8.0,2.0,18.0,18.0,18.0,16.0,0.6666666666666666,0.2222222222222222,0.1111111111111111,0.4444444444444444,0.4444444444444444,0.1111111111111111,0.4444444444444444,0.4444444444444444,0.1111111111111111,0.75,0.25,0.4444444444444444,0.5,128,19,No,speakers,6~10,English,,,,SONA for course credit,,No,Female,,8.0,4-5,"Yes, I do alright","piano, flute",Agree,Disagree,,2020-09-18 10:39:48,39768
126,SSS0129,0 2 4 7 9,True,BBBAAABABAAAABABA,0.39626596261131797,17,11,0.1661529541015625,1575.989999982994,1109.6600000164472,1610.8074999938253,0.0,0.7711160337959846,1.3529411764705883,2.8823529411764706,0.0,0.0,-501.1474999773782,0.6888843018304178,11.0,6.0,0.0,10.0,7.0,0.0,10.0,7.0,0.0,17.0,17.0,17.0,17.0,0.6470588235294118,0.35294117647058826,0.0,0.5882352941176471,0.4117647058823529,0.0,0.5882352941176471,0.4117647058823529,0.0,0.6470588235294118,0.35294117647058826,0.29411764705882354,0.29411764705882354,129,19,No,,17,Other (please specify below):,pitch,,Unknown,SONA for course credit,Chinese,Yes,Male,,3.0,1,No,,Strongly Agree,Agree,pitch of sound,2020-09-19 19:31:53,39832
