,index,rt,stimulus,key_press,name,trial_type,trial_index,time_elapsed,internal_node_id,set,transposition,mode,mode_no,probe_pitches,question_num,response,response_numeric,subject,sona_x,block,time,malformed,Unnamed: 0,subject_age,How did you listen to the task?,"If you have had musical training, how old were you during this period (i.e., age-range)?",What is your first language?,How did you arrive at this experiment?,What is your first language (if other)?,subject_gender,How many years of formal music theory training do you have?,Do you have perfect (absolute) pitch?,What informed your judgement (if anything) of how familiar were the melodies?,What general strategy (if any) did you use to judge whether melodies had some notes that were more important than others?,Would you consider yourself a musical person? (0-10),How many years of formal musical training do you have?,Do you play any instruments (with or without formal training)?,Which instruments do you play (if any)?,I understood the instructions of the task,I found the task difficult,What general strategy (if any) did you use to judge the similarity across the melodies?,RecordedDate,sona_y,understood task
0,0,2316,Some notes felt more important than others.,52,likert,html-keyboard-response,7,43025,0.0-7.0,0 1 2 4 5,-2,"[0, 1, 8, 9, 10]",3,8 7 8 6 10 8 6 10 7 6 10 7,1,somewhat agree,4,SSSQ0003,38374,1,2020-11-22 07:57:52.492000+00:00,probe doesn't include all set's notes.,2,19,in-ear earphones,9-12,Other (please specify below):,SONA for course credit,Chinese,Female,2-3,Not sure,"none, intuition",if certain notes repeat for many times,5.0,2-3,"Yes, but not so well",piano,Strongly Agree,Agree,if the musical notes fit well together,2020-11-22 05:28:32,38374,True
1,1,2278,The melody as a whole or parts of it felt familiar.,51,likert,html-keyboard-response,9,46307,0.0-9.0,0 1 2 4 5,-2,"[0, 1, 8, 9, 10]",3,8 7 8 6 10 8 6 10 7 6 10 7,1,neutral,3,SSSQ0003,38374,1,2020-11-22 07:57:52.492000+00:00,probe doesn't include all set's notes.,2,19,in-ear earphones,9-12,Other (please specify below):,SONA for course credit,Chinese,Female,2-3,Not sure,"none, intuition",if certain notes repeat for many times,5.0,2-3,"Yes, but not so well",piano,Strongly Agree,Agree,if the musical notes fit well together,2020-11-22 05:28:32,38374,True
2,2,1162,The audio clip was melodic.,52,likert,html-keyboard-response,11,48476,0.0-11.0,0 1 2 4 5,-2,"[0, 1, 8, 9, 10]",3,8 7 8 6 10 8 6 10 7 6 10 7,1,somewhat agree,4,SSSQ0003,38374,1,2020-11-22 07:57:52.492000+00:00,probe doesn't include all set's notes.,2,19,in-ear earphones,9-12,Other (please specify below):,SONA for course credit,Chinese,Female,2-3,Not sure,"none, intuition",if certain notes repeat for many times,5.0,2-3,"Yes, but not so well",piano,Strongly Agree,Agree,if the musical notes fit well together,2020-11-22 05:28:32,38374,True
3,3,392,Some notes felt more important than others.,53,likert,html-keyboard-response,16,55212,0.0-16.0,0 1 4 5 7,3,"[0, 5, 6, 9, 10]",4,15 9 13 15 8 9 12 8 3 13 15 9,11,agree,5,SSSQ0003,38374,1,2020-11-22 07:57:52.492000+00:00,,2,19,in-ear earphones,9-12,Other (please specify below):,SONA for course credit,Chinese,Female,2-3,Not sure,"none, intuition",if certain notes repeat for many times,5.0,2-3,"Yes, but not so well",piano,Strongly Agree,Agree,if the musical notes fit well together,2020-11-22 05:28:32,38374,True
4,4,1002,The melody as a whole or parts of it felt familiar.,50,likert,html-keyboard-response,18,57222,0.0-18.0,0 1 4 5 7,3,"[0, 5, 6, 9, 10]",4,15 9 13 15 8 9 12 8 3 13 15 9,11,somewhat disagree,2,SSSQ0003,38374,1,2020-11-22 07:57:52.492000+00:00,,2,19,in-ear earphones,9-12,Other (please specify below):,SONA for course credit,Chinese,Female,2-3,Not sure,"none, intuition",if certain notes repeat for many times,5.0,2-3,"Yes, but not so well",piano,Strongly Agree,Agree,if the musical notes fit well together,2020-11-22 05:28:32,38374,True
5,5,847,The audio clip was melodic.,50,likert,html-keyboard-response,20,59075,0.0-20.0,0 1 4 5 7,3,"[0, 5, 6, 9, 10]",4,15 9 13 15 8 9 12 8 3 13 15 9,11,somewhat disagree,2,SSSQ0003,38374,1,2020-11-22 07:57:52.492000+00:00,,2,19,in-ear earphones,9-12,Other (please specify below):,SONA for course credit,Chinese,Female,2-3,Not sure,"none, intuition",if certain notes repeat for many times,5.0,2-3,"Yes, but not so well",piano,Strongly Agree,Agree,if the musical notes fit well together,2020-11-22 05:28:32,38374,True
6,6,11221,Some notes felt more important than others.,52,likert,html-keyboard-response,25,76653,0.0-25.0,0 3 4 6 7,3,"[0, 1, 6, 9, 10]",3,3 4 3 4 12 4 15 3 4 12 13 4,21,somewhat agree,4,SSSQ0003,38374,1,2020-11-22 07:57:52.492000+00:00,probe doesn't include all set's notes.,2,19,in-ear earphones,9-12,Other (please specify below):,SONA for course credit,Chinese,Female,2-3,Not sure,"none, intuition",if certain notes repeat for many times,5.0,2-3,"Yes, but not so well",piano,Strongly Agree,Agree,if the musical notes fit well together,2020-11-22 05:28:32,38374,True
7,7,4966,The melody as a whole or parts of it felt familiar.,49,likert,html-keyboard-response,27,82623,0.0-27.0,0 3 4 6 7,3,"[0, 1, 6, 9, 10]",3,3 4 3 4 12 4 15 3 4 12 13 4,21,disagree,1,SSSQ0003,38374,1,2020-11-22 07:57:52.492000+00:00,probe doesn't include all set's notes.,2,19,in-ear earphones,9-12,Other (please specify below):,SONA for course credit,Chinese,Female,2-3,Not sure,"none, intuition",if certain notes repeat for many times,5.0,2-3,"Yes, but not so well",piano,Strongly Agree,Agree,if the musical notes fit well together,2020-11-22 05:28:32,38374,True
8,8,2105,The audio clip was melodic.,52,likert,html-keyboard-response,29,85732,0.0-29.0,0 3 4 6 7,3,"[0, 1, 6, 9, 10]",3,3 4 3 4 12 4 15 3 4 12 13 4,21,somewhat agree,4,SSSQ0003,38374,1,2020-11-22 07:57:52.492000+00:00,probe doesn't include all set's notes.,2,19,in-ear earphones,9-12,Other (please specify below):,SONA for course credit,Chinese,Female,2-3,Not sure,"none, intuition",if certain notes repeat for many times,5.0,2-3,"Yes, but not so well",piano,Strongly Agree,Agree,if the musical notes fit well together,2020-11-22 05:28:32,38374,True
9,9,717,Some notes felt more important than others.,53,likert,html-keyboard-response,34,92909,0.0-34.0,0 2 5 6 8,-3,"[0, 1, 3, 7, 9]",2,6 9 4 0 9 6 -3 4 0 4 0 4,31,agree,5,SSSQ0003,38374,1,2020-11-22 07:57:52.492000+00:00,probe doesn't include all set's notes.,2,19,in-ear earphones,9-12,Other (please specify below):,SONA for course credit,Chinese,Female,2-3,Not sure,"none, intuition",if certain notes repeat for many times,5.0,2-3,"Yes, but not so well",piano,Strongly Agree,Agree,if the musical notes fit well together,2020-11-22 05:28:32,38374,True
10,10,4269,The melody as a whole or parts of it felt familiar.,51,likert,html-keyboard-response,36,98180,0.0-36.0,0 2 5 6 8,-3,"[0, 1, 3, 7, 9]",2,6 9 4 0 9 6 -3 4 0 4 0 4,31,neutral,3,SSSQ0003,38374,1,2020-11-22 07:57:52.492000+00:00,probe doesn't include all set's notes.,2,19,in-ear earphones,9-12,Other (please specify below):,SONA for course credit,Chinese,Female,2-3,Not sure,"none, intuition",if certain notes repeat for many times,5.0,2-3,"Yes, but not so well",piano,Strongly Agree,Agree,if the musical notes fit well together,2020-11-22 05:28:32,38374,True
11,11,1895,The audio clip was melodic.,52,likert,html-keyboard-response,38,101077,0.0-38.0,0 2 5 6 8,-3,"[0, 1, 3, 7, 9]",2,6 9 4 0 9 6 -3 4 0 4 0 4,31,somewhat agree,4,SSSQ0003,38374,1,2020-11-22 07:57:52.492000+00:00,probe doesn't include all set's notes.,2,19,in-ear earphones,9-12,Other (please specify below):,SONA for course credit,Chinese,Female,2-3,Not sure,"none, intuition",if certain notes repeat for many times,5.0,2-3,"Yes, but not so well",piano,Strongly Agree,Agree,if the musical notes fit well together,2020-11-22 05:28:32,38374,True
12,12,6906,Some notes felt more important than others.,52,likert,html-keyboard-response,43,114302,0.0-43.0,0 2 4 7 8,-3,"[0, 1, 5, 7, 9]",3,-3 -2 2 6 2 6 4 2 9 6 4 -2,41,somewhat agree,4,SSSQ0003,38374,1,2020-11-22 07:57:52.492000+00:00,,2,19,in-ear earphones,9-12,Other (please specify below):,SONA for course credit,Chinese,Female,2-3,Not sure,"none, intuition",if certain notes repeat for many times,5.0,2-3,"Yes, but not so well",piano,Strongly Agree,Agree,if the musical notes fit well together,2020-11-22 05:28:32,38374,True
13,13,7990,The melody as a whole or parts of it felt familiar.,52,likert,html-keyboard-response,45,123298,0.0-45.0,0 2 4 7 8,-3,"[0, 1, 5, 7, 9]",3,-3 -2 2 6 2 6 4 2 9 6 4 -2,41,somewhat agree,4,SSSQ0003,38374,1,2020-11-22 07:57:52.492000+00:00,,2,19,in-ear earphones,9-12,Other (please specify below):,SONA for course credit,Chinese,Female,2-3,Not sure,"none, intuition",if certain notes repeat for many times,5.0,2-3,"Yes, but not so well",piano,Strongly Agree,Agree,if the musical notes fit well together,2020-11-22 05:28:32,38374,True
14,14,770,The audio clip was melodic.,51,likert,html-keyboard-response,47,125070,0.0-47.0,0 2 4 7 8,-3,"[0, 1, 5, 7, 9]",3,-3 -2 2 6 2 6 4 2 9 6 4 -2,41,neutral,3,SSSQ0003,38374,1,2020-11-22 07:57:52.492000+00:00,,2,19,in-ear earphones,9-12,Other (please specify below):,SONA for course credit,Chinese,Female,2-3,Not sure,"none, intuition",if certain notes repeat for many times,5.0,2-3,"Yes, but not so well",piano,Strongly Agree,Agree,if the musical notes fit well together,2020-11-22 05:28:32,38374,True
15,15,2105,Some notes felt more important than others.,51,likert,html-keyboard-response,52,133427,0.0-52.0,0 3 4 6 7,-1,"[0, 1, 3, 4, 9]",1,0 3 8 2 3 2 -1 0 3 -1 0 11,51,neutral,3,SSSQ0003,38374,1,2020-11-22 07:57:52.492000+00:00,,2,19,in-ear earphones,9-12,Other (please specify below):,SONA for course credit,Chinese,Female,2-3,Not sure,"none, intuition",if certain notes repeat for many times,5.0,2-3,"Yes, but not so well",piano,Strongly Agree,Agree,if the musical notes fit well together,2020-11-22 05:28:32,38374,True
16,16,569,The melody as a whole or parts of it felt familiar.,49,likert,html-keyboard-response,54,134998,0.0-54.0,0 3 4 6 7,-1,"[0, 1, 3, 4, 9]",1,0 3 8 2 3 2 -1 0 3 -1 0 11,51,disagree,1,SSSQ0003,38374,1,2020-11-22 07:57:52.492000+00:00,,2,19,in-ear earphones,9-12,Other (please specify below):,SONA for course credit,Chinese,Female,2-3,Not sure,"none, intuition",if certain notes repeat for many times,5.0,2-3,"Yes, but not so well",piano,Strongly Agree,Agree,if the musical notes fit well together,2020-11-22 05:28:32,38374,True
17,17,250,The audio clip was melodic.,49,likert,html-keyboard-response,56,136253,0.0-56.0,0 3 4 6 7,-1,"[0, 1, 3, 4, 9]",1,0 3 8 2 3 2 -1 0 3 -1 0 11,51,disagree,1,SSSQ0003,38374,1,2020-11-22 07:57:52.492000+00:00,,2,19,in-ear earphones,9-12,Other (please specify below):,SONA for course credit,Chinese,Female,2-3,Not sure,"none, intuition",if certain notes repeat for many times,5.0,2-3,"Yes, but not so well",piano,Strongly Agree,Agree,if the musical notes fit well together,2020-11-22 05:28:32,38374,True
18,18,2403,Some notes felt more important than others.,52,likert,html-keyboard-response,61,144960,0.0-61.0,0 1 4 5 7,2,"[0, 3, 4, 6, 11]",1,5 8 5 2 5 6 14 13 6 5 2 14,61,somewhat agree,4,SSSQ0003,38374,1,2020-11-22 07:57:52.492000+00:00,,2,19,in-ear earphones,9-12,Other (please specify below):,SONA for course credit,Chinese,Female,2-3,Not sure,"none, intuition",if certain notes repeat for many times,5.0,2-3,"Yes, but not so well",piano,Strongly Agree,Agree,if the musical notes fit well together,2020-11-22 05:28:32,38374,True
19,19,2143,The melody as a whole or parts of it felt familiar.,49,likert,html-keyboard-response,63,148107,0.0-63.0,0 1 4 5 7,2,"[0, 3, 4, 6, 11]",1,5 8 5 2 5 6 14 13 6 5 2 14,61,disagree,1,SSSQ0003,38374,1,2020-11-22 07:57:52.492000+00:00,,2,19,in-ear earphones,9-12,Other (please specify below):,SONA for course credit,Chinese,Female,2-3,Not sure,"none, intuition",if certain notes repeat for many times,5.0,2-3,"Yes, but not so well",piano,Strongly Agree,Agree,if the musical notes fit well together,2020-11-22 05:28:32,38374,True
20,20,241,The audio clip was melodic.,51,likert,html-keyboard-response,65,149352,0.0-65.0,0 1 4 5 7,2,"[0, 3, 4, 6, 11]",1,5 8 5 2 5 6 14 13 6 5 2 14,61,neutral,3,SSSQ0003,38374,1,2020-11-22 07:57:52.492000+00:00,,2,19,in-ear earphones,9-12,Other (please specify below):,SONA for course credit,Chinese,Female,2-3,Not sure,"none, intuition",if certain notes repeat for many times,5.0,2-3,"Yes, but not so well",piano,Strongly Agree,Agree,if the musical notes fit well together,2020-11-22 05:28:32,38374,True
21,21,3304,Some notes felt more important than others.,52,likert,html-keyboard-response,70,165157,0.0-70.0,0 3 4 5 6,2,"[0, 1, 2, 3, 9]",1,14 11 5 11 3 11 4 2 11 2 14 5,71,somewhat agree,4,SSSQ0003,38374,1,2020-11-22 07:57:52.492000+00:00,,2,19,in-ear earphones,9-12,Other (please specify below):,SONA for course credit,Chinese,Female,2-3,Not sure,"none, intuition",if certain notes repeat for many times,5.0,2-3,"Yes, but not so well",piano,Strongly Agree,Agree,if the musical notes fit well together,2020-11-22 05:28:32,38374,True
22,22,17893,The melody as a whole or parts of it felt familiar.,50,likert,html-keyboard-response,72,184053,0.0-72.0,0 3 4 5 6,2,"[0, 1, 2, 3, 9]",1,14 11 5 11 3 11 4 2 11 2 14 5,71,somewhat disagree,2,SSSQ0003,38374,1,2020-11-22 07:57:52.492000+00:00,,2,19,in-ear earphones,9-12,Other (please specify below):,SONA for course credit,Chinese,Female,2-3,Not sure,"none, intuition",if certain notes repeat for many times,5.0,2-3,"Yes, but not so well",piano,Strongly Agree,Agree,if the musical notes fit well together,2020-11-22 05:28:32,38374,True
23,23,345,The audio clip was melodic.,51,likert,html-keyboard-response,74,185401,0.0-74.0,0 3 4 5 6,2,"[0, 1, 2, 3, 9]",1,14 11 5 11 3 11 4 2 11 2 14 5,71,neutral,3,SSSQ0003,38374,1,2020-11-22 07:57:52.492000+00:00,,2,19,in-ear earphones,9-12,Other (please specify below):,SONA for course credit,Chinese,Female,2-3,Not sure,"none, intuition",if certain notes repeat for many times,5.0,2-3,"Yes, but not so well",piano,Strongly Agree,Agree,if the musical notes fit well together,2020-11-22 05:28:32,38374,True
24,24,5663,Some notes felt more important than others.,50,likert,html-keyboard-response,79,197325,0.0-79.0,0 1 4 6 8,-2,"[0, 2, 4, 8, 9]",2,-2 2 7 0 6 2 7 -2 10 7 2 10,81,somewhat disagree,2,SSSQ0003,38374,1,2020-11-22 07:57:52.492000+00:00,,2,19,in-ear earphones,9-12,Other (please specify below):,SONA for course credit,Chinese,Female,2-3,Not sure,"none, intuition",if certain notes repeat for many times,5.0,2-3,"Yes, but not so well",piano,Strongly Agree,Agree,if the musical notes fit well together,2020-11-22 05:28:32,38374,True
25,25,5530,The melody as a whole or parts of it felt familiar.,50,likert,html-keyboard-response,81,203857,0.0-81.0,0 1 4 6 8,-2,"[0, 2, 4, 8, 9]",2,-2 2 7 0 6 2 7 -2 10 7 2 10,81,somewhat disagree,2,SSSQ0003,38374,1,2020-11-22 07:57:52.492000+00:00,,2,19,in-ear earphones,9-12,Other (please specify below):,SONA for course credit,Chinese,Female,2-3,Not sure,"none, intuition",if certain notes repeat for many times,5.0,2-3,"Yes, but not so well",piano,Strongly Agree,Agree,if the musical notes fit well together,2020-11-22 05:28:32,38374,True
26,26,288,The audio clip was melodic.,51,likert,html-keyboard-response,83,205147,0.0-83.0,0 1 4 6 8,-2,"[0, 2, 4, 8, 9]",2,-2 2 7 0 6 2 7 -2 10 7 2 10,81,neutral,3,SSSQ0003,38374,1,2020-11-22 07:57:52.492000+00:00,,2,19,in-ear earphones,9-12,Other (please specify below):,SONA for course credit,Chinese,Female,2-3,Not sure,"none, intuition",if certain notes repeat for many times,5.0,2-3,"Yes, but not so well",piano,Strongly Agree,Agree,if the musical notes fit well together,2020-11-22 05:28:32,38374,True
27,27,821,Some notes felt more important than others.,53,likert,html-keyboard-response,88,215940,0.0-88.0,0 1 2 5 6,0,"[0, 1, 7, 8, 9]",3,9 12 7 9 12 8 1 7 12 9 8 9,91,agree,5,SSSQ0003,38374,1,2020-11-22 07:57:52.492000+00:00,,2,19,in-ear earphones,9-12,Other (please specify below):,SONA for course credit,Chinese,Female,2-3,Not sure,"none, intuition",if certain notes repeat for many times,5.0,2-3,"Yes, but not so well",piano,Strongly Agree,Agree,if the musical notes fit well together,2020-11-22 05:28:32,38374,True
28,28,3329,The melody as a whole or parts of it felt familiar.,50,likert,html-keyboard-response,90,220271,0.0-90.0,0 1 2 5 6,0,"[0, 1, 7, 8, 9]",3,9 12 7 9 12 8 1 7 12 9 8 9,91,somewhat disagree,2,SSSQ0003,38374,1,2020-11-22 07:57:52.492000+00:00,,2,19,in-ear earphones,9-12,Other (please specify below):,SONA for course credit,Chinese,Female,2-3,Not sure,"none, intuition",if certain notes repeat for many times,5.0,2-3,"Yes, but not so well",piano,Strongly Agree,Agree,if the musical notes fit well together,2020-11-22 05:28:32,38374,True
29,29,328,The audio clip was melodic.,51,likert,html-keyboard-response,92,221601,0.0-92.0,0 1 2 5 6,0,"[0, 1, 7, 8, 9]",3,9 12 7 9 12 8 1 7 12 9 8 9,91,neutral,3,SSSQ0003,38374,1,2020-11-22 07:57:52.492000+00:00,,2,19,in-ear earphones,9-12,Other (please specify below):,SONA for course credit,Chinese,Female,2-3,Not sure,"none, intuition",if certain notes repeat for many times,5.0,2-3,"Yes, but not so well",piano,Strongly Agree,Agree,if the musical notes fit well together,2020-11-22 05:28:32,38374,True
30,30,2017,Some notes felt more important than others.,52,likert,html-keyboard-response,97,230406,0.0-97.0,0 2 3 7 8,2,"[0, 1, 5, 7, 8]",3,14 10 7 10 14 10 9 14 9 3 9 3,101,somewhat agree,4,SSSQ0003,38374,1,2020-11-22 07:57:52.492000+00:00,,2,19,in-ear earphones,9-12,Other (please specify below):,SONA for course credit,Chinese,Female,2-3,Not sure,"none, intuition",if certain notes repeat for many times,5.0,2-3,"Yes, but not so well",piano,Strongly Agree,Agree,if the musical notes fit well together,2020-11-22 05:28:32,38374,True
31,31,1968,The melody as a whole or parts of it felt familiar.,52,likert,html-keyboard-response,99,233376,0.0-99.0,0 2 3 7 8,2,"[0, 1, 5, 7, 8]",3,14 10 7 10 14 10 9 14 9 3 9 3,101,somewhat agree,4,SSSQ0003,38374,1,2020-11-22 07:57:52.492000+00:00,,2,19,in-ear earphones,9-12,Other (please specify below):,SONA for course credit,Chinese,Female,2-3,Not sure,"none, intuition",if certain notes repeat for many times,5.0,2-3,"Yes, but not so well",piano,Strongly Agree,Agree,if the musical notes fit well together,2020-11-22 05:28:32,38374,True
32,32,333,The audio clip was melodic.,51,likert,html-keyboard-response,101,234712,0.0-101.0,0 2 3 7 8,2,"[0, 1, 5, 7, 8]",3,14 10 7 10 14 10 9 14 9 3 9 3,101,neutral,3,SSSQ0003,38374,1,2020-11-22 07:57:52.492000+00:00,,2,19,in-ear earphones,9-12,Other (please specify below):,SONA for course credit,Chinese,Female,2-3,Not sure,"none, intuition",if certain notes repeat for many times,5.0,2-3,"Yes, but not so well",piano,Strongly Agree,Agree,if the musical notes fit well together,2020-11-22 05:28:32,38374,True
33,33,3262,Some notes felt more important than others.,51,likert,html-keyboard-response,106,244237,0.0-106.0,0 2 5 6 7,-1,"[0, 5, 7, 10, 11]",4,6 9 11 10 9 10 11 4 10 11 4 6,111,neutral,3,SSSQ0003,38374,1,2020-11-22 07:57:52.492000+00:00,,2,19,in-ear earphones,9-12,Other (please specify below):,SONA for course credit,Chinese,Female,2-3,Not sure,"none, intuition",if certain notes repeat for many times,5.0,2-3,"Yes, but not so well",piano,Strongly Agree,Agree,if the musical notes fit well together,2020-11-22 05:28:32,38374,True
34,34,1751,The melody as a whole or parts of it felt familiar.,50,likert,html-keyboard-response,108,246993,0.0-108.0,0 2 5 6 7,-1,"[0, 5, 7, 10, 11]",4,6 9 11 10 9 10 11 4 10 11 4 6,111,somewhat disagree,2,SSSQ0003,38374,1,2020-11-22 07:57:52.492000+00:00,,2,19,in-ear earphones,9-12,Other (please specify below):,SONA for course credit,Chinese,Female,2-3,Not sure,"none, intuition",if certain notes repeat for many times,5.0,2-3,"Yes, but not so well",piano,Strongly Agree,Agree,if the musical notes fit well together,2020-11-22 05:28:32,38374,True
35,35,352,The audio clip was melodic.,50,likert,html-keyboard-response,110,248350,0.0-110.0,0 2 5 6 7,-1,"[0, 5, 7, 10, 11]",4,6 9 11 10 9 10 11 4 10 11 4 6,111,somewhat disagree,2,SSSQ0003,38374,1,2020-11-22 07:57:52.492000+00:00,,2,19,in-ear earphones,9-12,Other (please specify below):,SONA for course credit,Chinese,Female,2-3,Not sure,"none, intuition",if certain notes repeat for many times,5.0,2-3,"Yes, but not so well",piano,Strongly Agree,Agree,if the musical notes fit well together,2020-11-22 05:28:32,38374,True
36,36,3341,Some notes felt more important than others.,53,likert,html-keyboard-response,115,257958,0.0-115.0,0 1 2 4 6,1,"[0, 2, 8, 9, 10]",3,13 9 11 3 1 9 13 10 13 11 13 3,121,agree,5,SSSQ0003,38374,1,2020-11-22 07:57:52.492000+00:00,,2,19,in-ear earphones,9-12,Other (please specify below):,SONA for course credit,Chinese,Female,2-3,Not sure,"none, intuition",if certain notes repeat for many times,5.0,2-3,"Yes, but not so well",piano,Strongly Agree,Agree,if the musical notes fit well together,2020-11-22 05:28:32,38374,True
37,37,1609,The melody as a whole or parts of it felt familiar.,49,likert,html-keyboard-response,117,260569,0.0-117.0,0 1 2 4 6,1,"[0, 2, 8, 9, 10]",3,13 9 11 3 1 9 13 10 13 11 13 3,121,disagree,1,SSSQ0003,38374,1,2020-11-22 07:57:52.492000+00:00,,2,19,in-ear earphones,9-12,Other (please specify below):,SONA for course credit,Chinese,Female,2-3,Not sure,"none, intuition",if certain notes repeat for many times,5.0,2-3,"Yes, but not so well",piano,Strongly Agree,Agree,if the musical notes fit well together,2020-11-22 05:28:32,38374,True
38,38,1214,The audio clip was melodic.,52,likert,html-keyboard-response,119,262789,0.0-119.0,0 1 2 4 6,1,"[0, 2, 8, 9, 10]",3,13 9 11 3 1 9 13 10 13 11 13 3,121,somewhat agree,4,SSSQ0003,38374,1,2020-11-22 07:57:52.492000+00:00,,2,19,in-ear earphones,9-12,Other (please specify below):,SONA for course credit,Chinese,Female,2-3,Not sure,"none, intuition",if certain notes repeat for many times,5.0,2-3,"Yes, but not so well",piano,Strongly Agree,Agree,if the musical notes fit well together,2020-11-22 05:28:32,38374,True
39,39,969,Some notes felt more important than others.,51,likert,html-keyboard-response,124,270063,0.0-124.0,0 1 4 5 7,0,"[0, 3, 4, 6, 11]",1,12 6 4 12 3 12 6 3 0 4 11 4,131,neutral,3,SSSQ0003,38374,1,2020-11-22 07:57:52.492000+00:00,,2,19,in-ear earphones,9-12,Other (please specify below):,SONA for course credit,Chinese,Female,2-3,Not sure,"none, intuition",if certain notes repeat for many times,5.0,2-3,"Yes, but not so well",piano,Strongly Agree,Agree,if the musical notes fit well together,2020-11-22 05:28:32,38374,True
40,40,2792,The melody as a whole or parts of it felt familiar.,52,likert,html-keyboard-response,126,273860,0.0-126.0,0 1 4 5 7,0,"[0, 3, 4, 6, 11]",1,12 6 4 12 3 12 6 3 0 4 11 4,131,somewhat agree,4,SSSQ0003,38374,1,2020-11-22 07:57:52.492000+00:00,,2,19,in-ear earphones,9-12,Other (please specify below):,SONA for course credit,Chinese,Female,2-3,Not sure,"none, intuition",if certain notes repeat for many times,5.0,2-3,"Yes, but not so well",piano,Strongly Agree,Agree,if the musical notes fit well together,2020-11-22 05:28:32,38374,True
41,41,960,The audio clip was melodic.,50,likert,html-keyboard-response,128,275825,0.0-128.0,0 1 4 5 7,0,"[0, 3, 4, 6, 11]",1,12 6 4 12 3 12 6 3 0 4 11 4,131,somewhat disagree,2,SSSQ0003,38374,1,2020-11-22 07:57:52.492000+00:00,,2,19,in-ear earphones,9-12,Other (please specify below):,SONA for course credit,Chinese,Female,2-3,Not sure,"none, intuition",if certain notes repeat for many times,5.0,2-3,"Yes, but not so well",piano,Strongly Agree,Agree,if the musical notes fit well together,2020-11-22 05:28:32,38374,True
42,42,7659,Some notes felt more important than others.,51,likert,html-keyboard-response,133,289815,0.0-133.0,0 1 2 3 5,1,"[0, 7, 8, 9, 10]",4,11 8 9 11 8 11 13 10 9 11 1 13,141,neutral,3,SSSQ0003,38374,1,2020-11-22 07:57:52.492000+00:00,,2,19,in-ear earphones,9-12,Other (please specify below):,SONA for course credit,Chinese,Female,2-3,Not sure,"none, intuition",if certain notes repeat for many times,5.0,2-3,"Yes, but not so well",piano,Strongly Agree,Agree,if the musical notes fit well together,2020-11-22 05:28:32,38374,True
43,43,8890,The melody as a whole or parts of it felt familiar.,50,likert,html-keyboard-response,135,299707,0.0-135.0,0 1 2 3 5,1,"[0, 7, 8, 9, 10]",4,11 8 9 11 8 11 13 10 9 11 1 13,141,somewhat disagree,2,SSSQ0003,38374,1,2020-11-22 07:57:52.492000+00:00,,2,19,in-ear earphones,9-12,Other (please specify below):,SONA for course credit,Chinese,Female,2-3,Not sure,"none, intuition",if certain notes repeat for many times,5.0,2-3,"Yes, but not so well",piano,Strongly Agree,Agree,if the musical notes fit well together,2020-11-22 05:28:32,38374,True
44,44,1608,The audio clip was melodic.,52,likert,html-keyboard-response,137,302317,0.0-137.0,0 1 2 3 5,1,"[0, 7, 8, 9, 10]",4,11 8 9 11 8 11 13 10 9 11 1 13,141,somewhat agree,4,SSSQ0003,38374,1,2020-11-22 07:57:52.492000+00:00,,2,19,in-ear earphones,9-12,Other (please specify below):,SONA for course credit,Chinese,Female,2-3,Not sure,"none, intuition",if certain notes repeat for many times,5.0,2-3,"Yes, but not so well",piano,Strongly Agree,Agree,if the musical notes fit well together,2020-11-22 05:28:32,38374,True
45,45,9990,Some notes felt more important than others.,53,likert,html-keyboard-response,142,318719,0.0-142.0,0 3 4 7 8,0,"[0, 1, 5, 8, 9]",3,0 1 0 5 12 9 5 1 8 9 5 9,151,agree,5,SSSQ0003,38374,1,2020-11-22 07:57:52.492000+00:00,,2,19,in-ear earphones,9-12,Other (please specify below):,SONA for course credit,Chinese,Female,2-3,Not sure,"none, intuition",if certain notes repeat for many times,5.0,2-3,"Yes, but not so well",piano,Strongly Agree,Agree,if the musical notes fit well together,2020-11-22 05:28:32,38374,True
46,46,1810,The melody as a whole or parts of it felt familiar.,51,likert,html-keyboard-response,144,321532,0.0-144.0,0 3 4 7 8,0,"[0, 1, 5, 8, 9]",3,0 1 0 5 12 9 5 1 8 9 5 9,151,neutral,3,SSSQ0003,38374,1,2020-11-22 07:57:52.492000+00:00,,2,19,in-ear earphones,9-12,Other (please specify below):,SONA for course credit,Chinese,Female,2-3,Not sure,"none, intuition",if certain notes repeat for many times,5.0,2-3,"Yes, but not so well",piano,Strongly Agree,Agree,if the musical notes fit well together,2020-11-22 05:28:32,38374,True
47,47,266,The audio clip was melodic.,53,likert,html-keyboard-response,146,322801,0.0-146.0,0 3 4 7 8,0,"[0, 1, 5, 8, 9]",3,0 1 0 5 12 9 5 1 8 9 5 9,151,agree,5,SSSQ0003,38374,1,2020-11-22 07:57:52.492000+00:00,,2,19,in-ear earphones,9-12,Other (please specify below):,SONA for course credit,Chinese,Female,2-3,Not sure,"none, intuition",if certain notes repeat for many times,5.0,2-3,"Yes, but not so well",piano,Strongly Agree,Agree,if the musical notes fit well together,2020-11-22 05:28:32,38374,True
48,48,13813,Some notes felt more important than others.,52,likert,html-keyboard-response,151,342705,0.0-151.0,0 2 3 7 8,0,"[0, 4, 5, 9, 11]",2,12 11 9 5 12 4 9 0 4 12 5 12,161,somewhat agree,4,SSSQ0003,38374,1,2020-11-22 07:57:52.492000+00:00,,2,19,in-ear earphones,9-12,Other (please specify below):,SONA for course credit,Chinese,Female,2-3,Not sure,"none, intuition",if certain notes repeat for many times,5.0,2-3,"Yes, but not so well",piano,Strongly Agree,Agree,if the musical notes fit well together,2020-11-22 05:28:32,38374,True
49,49,2295,The melody as a whole or parts of it felt familiar.,52,likert,html-keyboard-response,153,346004,0.0-153.0,0 2 3 7 8,0,"[0, 4, 5, 9, 11]",2,12 11 9 5 12 4 9 0 4 12 5 12,161,somewhat agree,4,SSSQ0003,38374,1,2020-11-22 07:57:52.492000+00:00,,2,19,in-ear earphones,9-12,Other (please specify below):,SONA for course credit,Chinese,Female,2-3,Not sure,"none, intuition",if certain notes repeat for many times,5.0,2-3,"Yes, but not so well",piano,Strongly Agree,Agree,if the musical notes fit well together,2020-11-22 05:28:32,38374,True
50,50,649,The audio clip was melodic.,52,likert,html-keyboard-response,155,347658,0.0-155.0,0 2 3 7 8,0,"[0, 4, 5, 9, 11]",2,12 11 9 5 12 4 9 0 4 12 5 12,161,somewhat agree,4,SSSQ0003,38374,1,2020-11-22 07:57:52.492000+00:00,,2,19,in-ear earphones,9-12,Other (please specify below):,SONA for course credit,Chinese,Female,2-3,Not sure,"none, intuition",if certain notes repeat for many times,5.0,2-3,"Yes, but not so well",piano,Strongly Agree,Agree,if the musical notes fit well together,2020-11-22 05:28:32,38374,True
51,51,5129,Some notes felt more important than others.,52,likert,html-keyboard-response,160,359075,0.0-160.0,0 2 5 6 9,2,"[0, 3, 5, 8, 9]",4,7 5 10 11 5 10 14 2 5 14 2 10,171,somewhat agree,4,SSSQ0003,38374,1,2020-11-22 07:57:52.492000+00:00,,2,19,in-ear earphones,9-12,Other (please specify below):,SONA for course credit,Chinese,Female,2-3,Not sure,"none, intuition",if certain notes repeat for many times,5.0,2-3,"Yes, but not so well",piano,Strongly Agree,Agree,if the musical notes fit well together,2020-11-22 05:28:32,38374,True
52,52,1144,The melody as a whole or parts of it felt familiar.,50,likert,html-keyboard-response,162,361221,0.0-162.0,0 2 5 6 9,2,"[0, 3, 5, 8, 9]",4,7 5 10 11 5 10 14 2 5 14 2 10,171,somewhat disagree,2,SSSQ0003,38374,1,2020-11-22 07:57:52.492000+00:00,,2,19,in-ear earphones,9-12,Other (please specify below):,SONA for course credit,Chinese,Female,2-3,Not sure,"none, intuition",if certain notes repeat for many times,5.0,2-3,"Yes, but not so well",piano,Strongly Agree,Agree,if the musical notes fit well together,2020-11-22 05:28:32,38374,True
53,53,477,The audio clip was melodic.,51,likert,html-keyboard-response,164,362701,0.0-164.0,0 2 5 6 9,2,"[0, 3, 5, 8, 9]",4,7 5 10 11 5 10 14 2 5 14 2 10,171,neutral,3,SSSQ0003,38374,1,2020-11-22 07:57:52.492000+00:00,,2,19,in-ear earphones,9-12,Other (please specify below):,SONA for course credit,Chinese,Female,2-3,Not sure,"none, intuition",if certain notes repeat for many times,5.0,2-3,"Yes, but not so well",piano,Strongly Agree,Agree,if the musical notes fit well together,2020-11-22 05:28:32,38374,True
54,54,15495,Some notes felt more important than others.,51,likert,html-keyboard-response,169,384447,0.0-169.0,0 1 2 4 5,0,"[0, 1, 3, 4, 11]",1,11 12 11 4 12 3 4 11 12 1 4 3,181,neutral,3,SSSQ0003,38374,1,2020-11-22 07:57:52.492000+00:00,,2,19,in-ear earphones,9-12,Other (please specify below):,SONA for course credit,Chinese,Female,2-3,Not sure,"none, intuition",if certain notes repeat for many times,5.0,2-3,"Yes, but not so well",piano,Strongly Agree,Agree,if the musical notes fit well together,2020-11-22 05:28:32,38374,True
55,55,10352,The melody as a whole or parts of it felt familiar.,49,likert,html-keyboard-response,171,395802,0.0-171.0,0 1 2 4 5,0,"[0, 1, 3, 4, 11]",1,11 12 11 4 12 3 4 11 12 1 4 3,181,disagree,1,SSSQ0003,38374,1,2020-11-22 07:57:52.492000+00:00,,2,19,in-ear earphones,9-12,Other (please specify below):,SONA for course credit,Chinese,Female,2-3,Not sure,"none, intuition",if certain notes repeat for many times,5.0,2-3,"Yes, but not so well",piano,Strongly Agree,Agree,if the musical notes fit well together,2020-11-22 05:28:32,38374,True
56,56,2521,The audio clip was melodic.,50,likert,html-keyboard-response,173,399325,0.0-173.0,0 1 2 4 5,0,"[0, 1, 3, 4, 11]",1,11 12 11 4 12 3 4 11 12 1 4 3,181,somewhat disagree,2,SSSQ0003,38374,1,2020-11-22 07:57:52.492000+00:00,,2,19,in-ear earphones,9-12,Other (please specify below):,SONA for course credit,Chinese,Female,2-3,Not sure,"none, intuition",if certain notes repeat for many times,5.0,2-3,"Yes, but not so well",piano,Strongly Agree,Agree,if the musical notes fit well together,2020-11-22 05:28:32,38374,True
57,57,495,Some notes felt more important than others.,53,likert,html-keyboard-response,178,406987,0.0-178.0,0 4 5 6 7,2,"[0, 5, 9, 10, 11]",4,2 7 14 7 13 11 7 2 11 14 7 14,191,agree,5,SSSQ0003,38374,1,2020-11-22 07:57:52.492000+00:00,probe doesn't include all set's notes.,2,19,in-ear earphones,9-12,Other (please specify below):,SONA for course credit,Chinese,Female,2-3,Not sure,"none, intuition",if certain notes repeat for many times,5.0,2-3,"Yes, but not so well",piano,Strongly Agree,Agree,if the musical notes fit well together,2020-11-22 05:28:32,38374,True
58,58,938,The melody as a whole or parts of it felt familiar.,52,likert,html-keyboard-response,180,408929,0.0-180.0,0 4 5 6 7,2,"[0, 5, 9, 10, 11]",4,2 7 14 7 13 11 7 2 11 14 7 14,191,somewhat agree,4,SSSQ0003,38374,1,2020-11-22 07:57:52.492000+00:00,probe doesn't include all set's notes.,2,19,in-ear earphones,9-12,Other (please specify below):,SONA for course credit,Chinese,Female,2-3,Not sure,"none, intuition",if certain notes repeat for many times,5.0,2-3,"Yes, but not so well",piano,Strongly Agree,Agree,if the musical notes fit well together,2020-11-22 05:28:32,38374,True
59,59,254,The audio clip was melodic.,53,likert,html-keyboard-response,182,410188,0.0-182.0,0 4 5 6 7,2,"[0, 5, 9, 10, 11]",4,2 7 14 7 13 11 7 2 11 14 7 14,191,agree,5,SSSQ0003,38374,1,2020-11-22 07:57:52.492000+00:00,probe doesn't include all set's notes.,2,19,in-ear earphones,9-12,Other (please specify below):,SONA for course credit,Chinese,Female,2-3,Not sure,"none, intuition",if certain notes repeat for many times,5.0,2-3,"Yes, but not so well",piano,Strongly Agree,Agree,if the musical notes fit well together,2020-11-22 05:28:32,38374,True
60,60,238,Some notes felt more important than others.,53,likert,html-keyboard-response,187,416865,0.0-187.0,0 1 4 7 8,3,"[0, 3, 6, 7, 11]",1,14 10 9 14 10 15 14 9 10 14 10 3,201,agree,5,SSSQ0003,38374,1,2020-11-22 07:57:52.492000+00:00,probe doesn't include all set's notes.,2,19,in-ear earphones,9-12,Other (please specify below):,SONA for course credit,Chinese,Female,2-3,Not sure,"none, intuition",if certain notes repeat for many times,5.0,2-3,"Yes, but not so well",piano,Strongly Agree,Agree,if the musical notes fit well together,2020-11-22 05:28:32,38374,True
61,61,442,The melody as a whole or parts of it felt familiar.,51,likert,html-keyboard-response,189,418311,0.0-189.0,0 1 4 7 8,3,"[0, 3, 6, 7, 11]",1,14 10 9 14 10 15 14 9 10 14 10 3,201,neutral,3,SSSQ0003,38374,1,2020-11-22 07:57:52.492000+00:00,probe doesn't include all set's notes.,2,19,in-ear earphones,9-12,Other (please specify below):,SONA for course credit,Chinese,Female,2-3,Not sure,"none, intuition",if certain notes repeat for many times,5.0,2-3,"Yes, but not so well",piano,Strongly Agree,Agree,if the musical notes fit well together,2020-11-22 05:28:32,38374,True
62,62,356,The audio clip was melodic.,52,likert,html-keyboard-response,191,419671,0.0-191.0,0 1 4 7 8,3,"[0, 3, 6, 7, 11]",1,14 10 9 14 10 15 14 9 10 14 10 3,201,somewhat agree,4,SSSQ0003,38374,1,2020-11-22 07:57:52.492000+00:00,probe doesn't include all set's notes.,2,19,in-ear earphones,9-12,Other (please specify below):,SONA for course credit,Chinese,Female,2-3,Not sure,"none, intuition",if certain notes repeat for many times,5.0,2-3,"Yes, but not so well",piano,Strongly Agree,Agree,if the musical notes fit well together,2020-11-22 05:28:32,38374,True
63,63,275,Some notes felt more important than others.,50,likert,html-keyboard-response,196,426195,0.0-196.0,0 1 2 4 8,3,"[0, 2, 6, 10, 11]",2,3 9 15 13 15 14 3 15 13 9 14 9,211,somewhat disagree,2,SSSQ0003,38374,1,2020-11-22 07:57:52.492000+00:00,probe doesn't include all set's notes.,2,19,in-ear earphones,9-12,Other (please specify below):,SONA for course credit,Chinese,Female,2-3,Not sure,"none, intuition",if certain notes repeat for many times,5.0,2-3,"Yes, but not so well",piano,Strongly Agree,Agree,if the musical notes fit well together,2020-11-22 05:28:32,38374,True
64,64,3567,The melody as a whole or parts of it felt familiar.,51,likert,html-keyboard-response,198,430765,0.0-198.0,0 1 2 4 8,3,"[0, 2, 6, 10, 11]",2,3 9 15 13 15 14 3 15 13 9 14 9,211,neutral,3,SSSQ0003,38374,1,2020-11-22 07:57:52.492000+00:00,probe doesn't include all set's notes.,2,19,in-ear earphones,9-12,Other (please specify below):,SONA for course credit,Chinese,Female,2-3,Not sure,"none, intuition",if certain notes repeat for many times,5.0,2-3,"Yes, but not so well",piano,Strongly Agree,Agree,if the musical notes fit well together,2020-11-22 05:28:32,38374,True
65,65,1521,The audio clip was melodic.,53,likert,html-keyboard-response,200,433288,0.0-200.0,0 1 2 4 8,3,"[0, 2, 6, 10, 11]",2,3 9 15 13 15 14 3 15 13 9 14 9,211,agree,5,SSSQ0003,38374,1,2020-11-22 07:57:52.492000+00:00,probe doesn't include all set's notes.,2,19,in-ear earphones,9-12,Other (please specify below):,SONA for course credit,Chinese,Female,2-3,Not sure,"none, intuition",if certain notes repeat for many times,5.0,2-3,"Yes, but not so well",piano,Strongly Agree,Agree,if the musical notes fit well together,2020-11-22 05:28:32,38374,True
66,66,1523,Some notes felt more important than others.,50,likert,html-keyboard-response,205,441980,0.0-205.0,0 2 3 5 7,2,"[0, 2, 3, 5, 7]",0,9 4 7 5 7 9 14 5 14 2 5 4,221,somewhat disagree,2,SSSQ0003,38374,1,2020-11-22 07:57:52.492000+00:00,,2,19,in-ear earphones,9-12,Other (please specify below):,SONA for course credit,Chinese,Female,2-3,Not sure,"none, intuition",if certain notes repeat for many times,5.0,2-3,"Yes, but not so well",piano,Strongly Agree,Agree,if the musical notes fit well together,2020-11-22 05:28:32,38374,True
67,67,1445,The melody as a whole or parts of it felt familiar.,53,likert,html-keyboard-response,207,444427,0.0-207.0,0 2 3 5 7,2,"[0, 2, 3, 5, 7]",0,9 4 7 5 7 9 14 5 14 2 5 4,221,agree,5,SSSQ0003,38374,1,2020-11-22 07:57:52.492000+00:00,,2,19,in-ear earphones,9-12,Other (please specify below):,SONA for course credit,Chinese,Female,2-3,Not sure,"none, intuition",if certain notes repeat for many times,5.0,2-3,"Yes, but not so well",piano,Strongly Agree,Agree,if the musical notes fit well together,2020-11-22 05:28:32,38374,True
68,68,265,The audio clip was melodic.,53,likert,html-keyboard-response,209,445697,0.0-209.0,0 2 3 5 7,2,"[0, 2, 3, 5, 7]",0,9 4 7 5 7 9 14 5 14 2 5 4,221,agree,5,SSSQ0003,38374,1,2020-11-22 07:57:52.492000+00:00,,2,19,in-ear earphones,9-12,Other (please specify below):,SONA for course credit,Chinese,Female,2-3,Not sure,"none, intuition",if certain notes repeat for many times,5.0,2-3,"Yes, but not so well",piano,Strongly Agree,Agree,if the musical notes fit well together,2020-11-22 05:28:32,38374,True
69,69,1674,Some notes felt more important than others.,53,likert,html-keyboard-response,214,454049,0.0-214.0,0 3 4 5 7,2,"[0, 5, 8, 9, 10]",4,14 11 12 14 12 14 7 2 7 2 11 14,231,agree,5,SSSQ0003,38374,1,2020-11-22 07:57:52.492000+00:00,probe doesn't include all set's notes.,2,19,in-ear earphones,9-12,Other (please specify below):,SONA for course credit,Chinese,Female,2-3,Not sure,"none, intuition",if certain notes repeat for many times,5.0,2-3,"Yes, but not so well",piano,Strongly Agree,Agree,if the musical notes fit well together,2020-11-22 05:28:32,38374,True
70,70,2004,The melody as a whole or parts of it felt familiar.,52,likert,html-keyboard-response,216,457054,0.0-216.0,0 3 4 5 7,2,"[0, 5, 8, 9, 10]",4,14 11 12 14 12 14 7 2 7 2 11 14,231,somewhat agree,4,SSSQ0003,38374,1,2020-11-22 07:57:52.492000+00:00,probe doesn't include all set's notes.,2,19,in-ear earphones,9-12,Other (please specify below):,SONA for course credit,Chinese,Female,2-3,Not sure,"none, intuition",if certain notes repeat for many times,5.0,2-3,"Yes, but not so well",piano,Strongly Agree,Agree,if the musical notes fit well together,2020-11-22 05:28:32,38374,True
71,71,261,The audio clip was melodic.,53,likert,html-keyboard-response,218,458318,0.0-218.0,0 3 4 5 7,2,"[0, 5, 8, 9, 10]",4,14 11 12 14 12 14 7 2 7 2 11 14,231,agree,5,SSSQ0003,38374,1,2020-11-22 07:57:52.492000+00:00,probe doesn't include all set's notes.,2,19,in-ear earphones,9-12,Other (please specify below):,SONA for course credit,Chinese,Female,2-3,Not sure,"none, intuition",if certain notes repeat for many times,5.0,2-3,"Yes, but not so well",piano,Strongly Agree,Agree,if the musical notes fit well together,2020-11-22 05:28:32,38374,True
72,72,5373,Some notes felt more important than others.,51,likert,html-keyboard-response,223,481681,0.0-223.0,0 1 4 7 8,2,"[0, 3, 6, 7, 11]",1,13 14 8 13 14 5 8 14 13 2 14 2,241,neutral,3,SSSQ0003,38374,1,2020-11-22 07:57:52.492000+00:00,probe doesn't include all set's notes.,2,19,in-ear earphones,9-12,Other (please specify below):,SONA for course credit,Chinese,Female,2-3,Not sure,"none, intuition",if certain notes repeat for many times,5.0,2-3,"Yes, but not so well",piano,Strongly Agree,Agree,if the musical notes fit well together,2020-11-22 05:28:32,38374,True
73,73,3310,The melody as a whole or parts of it felt familiar.,52,likert,html-keyboard-response,225,485993,0.0-225.0,0 1 4 7 8,2,"[0, 3, 6, 7, 11]",1,13 14 8 13 14 5 8 14 13 2 14 2,241,somewhat agree,4,SSSQ0003,38374,1,2020-11-22 07:57:52.492000+00:00,probe doesn't include all set's notes.,2,19,in-ear earphones,9-12,Other (please specify below):,SONA for course credit,Chinese,Female,2-3,Not sure,"none, intuition",if certain notes repeat for many times,5.0,2-3,"Yes, but not so well",piano,Strongly Agree,Agree,if the musical notes fit well together,2020-11-22 05:28:32,38374,True
74,74,187,The audio clip was melodic.,52,likert,html-keyboard-response,227,487183,0.0-227.0,0 1 4 7 8,2,"[0, 3, 6, 7, 11]",1,13 14 8 13 14 5 8 14 13 2 14 2,241,somewhat agree,4,SSSQ0003,38374,1,2020-11-22 07:57:52.492000+00:00,probe doesn't include all set's notes.,2,19,in-ear earphones,9-12,Other (please specify below):,SONA for course credit,Chinese,Female,2-3,Not sure,"none, intuition",if certain notes repeat for many times,5.0,2-3,"Yes, but not so well",piano,Strongly Agree,Agree,if the musical notes fit well together,2020-11-22 05:28:32,38374,True
75,75,8888,Some notes felt more important than others.,52,likert,html-keyboard-response,232,503505,0.0-232.0,0 2 5 6 8,-2,"[0, 3, 4, 6, 10]",1,4 10 4 -2 2 4 -2 1 4 8 2 1,251,somewhat agree,4,SSSQ0003,38374,1,2020-11-22 07:57:52.492000+00:00,,2,19,in-ear earphones,9-12,Other (please specify below):,SONA for course credit,Chinese,Female,2-3,Not sure,"none, intuition",if certain notes repeat for many times,5.0,2-3,"Yes, but not so well",piano,Strongly Agree,Agree,if the musical notes fit well together,2020-11-22 05:28:32,38374,True
76,76,2297,The melody as a whole or parts of it felt familiar.,51,likert,html-keyboard-response,234,506806,0.0-234.0,0 2 5 6 8,-2,"[0, 3, 4, 6, 10]",1,4 10 4 -2 2 4 -2 1 4 8 2 1,251,neutral,3,SSSQ0003,38374,1,2020-11-22 07:57:52.492000+00:00,,2,19,in-ear earphones,9-12,Other (please specify below):,SONA for course credit,Chinese,Female,2-3,Not sure,"none, intuition",if certain notes repeat for many times,5.0,2-3,"Yes, but not so well",piano,Strongly Agree,Agree,if the musical notes fit well together,2020-11-22 05:28:32,38374,True
77,77,524,The audio clip was melodic.,53,likert,html-keyboard-response,236,508335,0.0-236.0,0 2 5 6 8,-2,"[0, 3, 4, 6, 10]",1,4 10 4 -2 2 4 -2 1 4 8 2 1,251,agree,5,SSSQ0003,38374,1,2020-11-22 07:57:52.492000+00:00,,2,19,in-ear earphones,9-12,Other (please specify below):,SONA for course credit,Chinese,Female,2-3,Not sure,"none, intuition",if certain notes repeat for many times,5.0,2-3,"Yes, but not so well",piano,Strongly Agree,Agree,if the musical notes fit well together,2020-11-22 05:28:32,38374,True
78,78,5335,Some notes felt more important than others.,51,likert,html-keyboard-response,241,519933,0.0-241.0,0 1 4 6 8,-1,"[0, 2, 6, 7, 10]",3,6 9 11 5 -1 6 5 1 9 11 -1 1,261,neutral,3,SSSQ0003,38374,1,2020-11-22 07:57:52.492000+00:00,,2,19,in-ear earphones,9-12,Other (please specify below):,SONA for course credit,Chinese,Female,2-3,Not sure,"none, intuition",if certain notes repeat for many times,5.0,2-3,"Yes, but not so well",piano,Strongly Agree,Agree,if the musical notes fit well together,2020-11-22 05:28:32,38374,True
79,79,4427,The melody as a whole or parts of it felt familiar.,52,likert,html-keyboard-response,243,525365,0.0-243.0,0 1 4 6 8,-1,"[0, 2, 6, 7, 10]",3,6 9 11 5 -1 6 5 1 9 11 -1 1,261,somewhat agree,4,SSSQ0003,38374,1,2020-11-22 07:57:52.492000+00:00,,2,19,in-ear earphones,9-12,Other (please specify below):,SONA for course credit,Chinese,Female,2-3,Not sure,"none, intuition",if certain notes repeat for many times,5.0,2-3,"Yes, but not so well",piano,Strongly Agree,Agree,if the musical notes fit well together,2020-11-22 05:28:32,38374,True
80,80,238,The audio clip was melodic.,52,likert,html-keyboard-response,245,526604,0.0-245.0,0 1 4 6 8,-1,"[0, 2, 6, 7, 10]",3,6 9 11 5 -1 6 5 1 9 11 -1 1,261,somewhat agree,4,SSSQ0003,38374,1,2020-11-22 07:57:52.492000+00:00,,2,19,in-ear earphones,9-12,Other (please specify below):,SONA for course credit,Chinese,Female,2-3,Not sure,"none, intuition",if certain notes repeat for many times,5.0,2-3,"Yes, but not so well",piano,Strongly Agree,Agree,if the musical notes fit well together,2020-11-22 05:28:32,38374,True
81,81,3873,Some notes felt more important than others.,52,likert,html-keyboard-response,250,536714,0.0-250.0,0 3 4 5 6,-3,"[0, 1, 2, 8, 11]",2,5 -1 -2 -1 -3 -1 8 5 -3 8 -3 -2,271,somewhat agree,4,SSSQ0003,38374,1,2020-11-22 07:57:52.492000+00:00,,2,19,in-ear earphones,9-12,Other (please specify below):,SONA for course credit,Chinese,Female,2-3,Not sure,"none, intuition",if certain notes repeat for many times,5.0,2-3,"Yes, but not so well",piano,Strongly Agree,Agree,if the musical notes fit well together,2020-11-22 05:28:32,38374,True
82,82,2676,The melody as a whole or parts of it felt familiar.,52,likert,html-keyboard-response,252,540395,0.0-252.0,0 3 4 5 6,-3,"[0, 1, 2, 8, 11]",2,5 -1 -2 -1 -3 -1 8 5 -3 8 -3 -2,271,somewhat agree,4,SSSQ0003,38374,1,2020-11-22 07:57:52.492000+00:00,,2,19,in-ear earphones,9-12,Other (please specify below):,SONA for course credit,Chinese,Female,2-3,Not sure,"none, intuition",if certain notes repeat for many times,5.0,2-3,"Yes, but not so well",piano,Strongly Agree,Agree,if the musical notes fit well together,2020-11-22 05:28:32,38374,True
83,83,307,The audio clip was melodic.,52,likert,html-keyboard-response,254,541708,0.0-254.0,0 3 4 5 6,-3,"[0, 1, 2, 8, 11]",2,5 -1 -2 -1 -3 -1 8 5 -3 8 -3 -2,271,somewhat agree,4,SSSQ0003,38374,1,2020-11-22 07:57:52.492000+00:00,,2,19,in-ear earphones,9-12,Other (please specify below):,SONA for course credit,Chinese,Female,2-3,Not sure,"none, intuition",if certain notes repeat for many times,5.0,2-3,"Yes, but not so well",piano,Strongly Agree,Agree,if the musical notes fit well together,2020-11-22 05:28:32,38374,True
84,84,831,Some notes felt more important than others.,53,likert,html-keyboard-response,259,566455,0.0-259.0,0 1 2 4 5,-1,"[0, 1, 2, 4, 5]",0,3 -1 3 -1 3 0 4 1 0 11 -1 11,281,agree,5,SSSQ0003,38374,1,2020-11-22 07:57:52.492000+00:00,,2,19,in-ear earphones,9-12,Other (please specify below):,SONA for course credit,Chinese,Female,2-3,Not sure,"none, intuition",if certain notes repeat for many times,5.0,2-3,"Yes, but not so well",piano,Strongly Agree,Agree,if the musical notes fit well together,2020-11-22 05:28:32,38374,True
85,85,1828,The melody as a whole or parts of it felt familiar.,52,likert,html-keyboard-response,261,569289,0.0-261.0,0 1 2 4 5,-1,"[0, 1, 2, 4, 5]",0,3 -1 3 -1 3 0 4 1 0 11 -1 11,281,somewhat agree,4,SSSQ0003,38374,1,2020-11-22 07:57:52.492000+00:00,,2,19,in-ear earphones,9-12,Other (please specify below):,SONA for course credit,Chinese,Female,2-3,Not sure,"none, intuition",if certain notes repeat for many times,5.0,2-3,"Yes, but not so well",piano,Strongly Agree,Agree,if the musical notes fit well together,2020-11-22 05:28:32,38374,True
86,86,384,The audio clip was melodic.,53,likert,html-keyboard-response,263,570678,0.0-263.0,0 1 2 4 5,-1,"[0, 1, 2, 4, 5]",0,3 -1 3 -1 3 0 4 1 0 11 -1 11,281,agree,5,SSSQ0003,38374,1,2020-11-22 07:57:52.492000+00:00,,2,19,in-ear earphones,9-12,Other (please specify below):,SONA for course credit,Chinese,Female,2-3,Not sure,"none, intuition",if certain notes repeat for many times,5.0,2-3,"Yes, but not so well",piano,Strongly Agree,Agree,if the musical notes fit well together,2020-11-22 05:28:32,38374,True
87,87,326,Some notes felt more important than others.,53,likert,html-keyboard-response,268,577328,0.0-268.0,0 1 2 4 8,2,"[0, 4, 5, 6, 8]",4,10 14 7 2 7 14 8 10 7 14 6 14,291,agree,5,SSSQ0003,38374,1,2020-11-22 07:57:52.492000+00:00,,2,19,in-ear earphones,9-12,Other (please specify below):,SONA for course credit,Chinese,Female,2-3,Not sure,"none, intuition",if certain notes repeat for many times,5.0,2-3,"Yes, but not so well",piano,Strongly Agree,Agree,if the musical notes fit well together,2020-11-22 05:28:32,38374,True
88,88,309,The melody as a whole or parts of it felt familiar.,51,likert,html-keyboard-response,270,578640,0.0-270.0,0 1 2 4 8,2,"[0, 4, 5, 6, 8]",4,10 14 7 2 7 14 8 10 7 14 6 14,291,neutral,3,SSSQ0003,38374,1,2020-11-22 07:57:52.492000+00:00,,2,19,in-ear earphones,9-12,Other (please specify below):,SONA for course credit,Chinese,Female,2-3,Not sure,"none, intuition",if certain notes repeat for many times,5.0,2-3,"Yes, but not so well",piano,Strongly Agree,Agree,if the musical notes fit well together,2020-11-22 05:28:32,38374,True
89,89,297,The audio clip was melodic.,49,likert,html-keyboard-response,272,579940,0.0-272.0,0 1 2 4 8,2,"[0, 4, 5, 6, 8]",4,10 14 7 2 7 14 8 10 7 14 6 14,291,disagree,1,SSSQ0003,38374,1,2020-11-22 07:57:52.492000+00:00,,2,19,in-ear earphones,9-12,Other (please specify below):,SONA for course credit,Chinese,Female,2-3,Not sure,"none, intuition",if certain notes repeat for many times,5.0,2-3,"Yes, but not so well",piano,Strongly Agree,Agree,if the musical notes fit well together,2020-11-22 05:28:32,38374,True
90,90,3875,Some notes felt more important than others.,51,likert,html-keyboard-response,277,590171,0.0-277.0,0 1 3 4 6,0,"[0, 1, 3, 9, 10]",2,1 3 0 3 9 1 0 12 10 12 10 1,301,neutral,3,SSSQ0003,38374,1,2020-11-22 07:57:52.492000+00:00,,2,19,in-ear earphones,9-12,Other (please specify below):,SONA for course credit,Chinese,Female,2-3,Not sure,"none, intuition",if certain notes repeat for many times,5.0,2-3,"Yes, but not so well",piano,Strongly Agree,Agree,if the musical notes fit well together,2020-11-22 05:28:32,38374,True
91,91,3851,The melody as a whole or parts of it felt familiar.,51,likert,html-keyboard-response,279,595023,0.0-279.0,0 1 3 4 6,0,"[0, 1, 3, 9, 10]",2,1 3 0 3 9 1 0 12 10 12 10 1,301,neutral,3,SSSQ0003,38374,1,2020-11-22 07:57:52.492000+00:00,,2,19,in-ear earphones,9-12,Other (please specify below):,SONA for course credit,Chinese,Female,2-3,Not sure,"none, intuition",if certain notes repeat for many times,5.0,2-3,"Yes, but not so well",piano,Strongly Agree,Agree,if the musical notes fit well together,2020-11-22 05:28:32,38374,True
92,92,742,The audio clip was melodic.,50,likert,html-keyboard-response,281,596767,0.0-281.0,0 1 3 4 6,0,"[0, 1, 3, 9, 10]",2,1 3 0 3 9 1 0 12 10 12 10 1,301,somewhat disagree,2,SSSQ0003,38374,1,2020-11-22 07:57:52.492000+00:00,,2,19,in-ear earphones,9-12,Other (please specify below):,SONA for course credit,Chinese,Female,2-3,Not sure,"none, intuition",if certain notes repeat for many times,5.0,2-3,"Yes, but not so well",piano,Strongly Agree,Agree,if the musical notes fit well together,2020-11-22 05:28:32,38374,True
93,93,5598,Some notes felt more important than others.,53,likert,html-keyboard-response,286,608717,0.0-286.0,0 1 2 4 8,-3,"[0, 4, 5, 6, 8]",4,1 5 2 9 2 -3 3 9 1 2 3 9,311,agree,5,SSSQ0003,38374,1,2020-11-22 07:57:52.492000+00:00,,2,19,in-ear earphones,9-12,Other (please specify below):,SONA for course credit,Chinese,Female,2-3,Not sure,"none, intuition",if certain notes repeat for many times,5.0,2-3,"Yes, but not so well",piano,Strongly Agree,Agree,if the musical notes fit well together,2020-11-22 05:28:32,38374,True
94,94,6920,The melody as a whole or parts of it felt familiar.,50,likert,html-keyboard-response,288,616641,0.0-288.0,0 1 2 4 8,-3,"[0, 4, 5, 6, 8]",4,1 5 2 9 2 -3 3 9 1 2 3 9,311,somewhat disagree,2,SSSQ0003,38374,1,2020-11-22 07:57:52.492000+00:00,,2,19,in-ear earphones,9-12,Other (please specify below):,SONA for course credit,Chinese,Female,2-3,Not sure,"none, intuition",if certain notes repeat for many times,5.0,2-3,"Yes, but not so well",piano,Strongly Agree,Agree,if the musical notes fit well together,2020-11-22 05:28:32,38374,True
95,95,1760,The audio clip was melodic.,52,likert,html-keyboard-response,290,619403,0.0-290.0,0 1 2 4 8,-3,"[0, 4, 5, 6, 8]",4,1 5 2 9 2 -3 3 9 1 2 3 9,311,somewhat agree,4,SSSQ0003,38374,1,2020-11-22 07:57:52.492000+00:00,,2,19,in-ear earphones,9-12,Other (please specify below):,SONA for course credit,Chinese,Female,2-3,Not sure,"none, intuition",if certain notes repeat for many times,5.0,2-3,"Yes, but not so well",piano,Strongly Agree,Agree,if the musical notes fit well together,2020-11-22 05:28:32,38374,True
96,96,4115,Some notes felt more important than others.,52,likert,html-keyboard-response,295,633531,0.0-295.0,0 3 4 6 7,0,"[0, 2, 3, 8, 11]",2,2 3 8 3 2 8 11 2 0 2 11 8,321,somewhat agree,4,SSSQ0003,38374,1,2020-11-22 07:57:52.492000+00:00,,2,19,in-ear earphones,9-12,Other (please specify below):,SONA for course credit,Chinese,Female,2-3,Not sure,"none, intuition",if certain notes repeat for many times,5.0,2-3,"Yes, but not so well",piano,Strongly Agree,Agree,if the musical notes fit well together,2020-11-22 05:28:32,38374,True
97,97,769,The melody as a whole or parts of it felt familiar.,52,likert,html-keyboard-response,297,635304,0.0-297.0,0 3 4 6 7,0,"[0, 2, 3, 8, 11]",2,2 3 8 3 2 8 11 2 0 2 11 8,321,somewhat agree,4,SSSQ0003,38374,1,2020-11-22 07:57:52.492000+00:00,,2,19,in-ear earphones,9-12,Other (please specify below):,SONA for course credit,Chinese,Female,2-3,Not sure,"none, intuition",if certain notes repeat for many times,5.0,2-3,"Yes, but not so well",piano,Strongly Agree,Agree,if the musical notes fit well together,2020-11-22 05:28:32,38374,True
98,98,260,The audio clip was melodic.,53,likert,html-keyboard-response,299,636565,0.0-299.0,0 3 4 6 7,0,"[0, 2, 3, 8, 11]",2,2 3 8 3 2 8 11 2 0 2 11 8,321,agree,5,SSSQ0003,38374,1,2020-11-22 07:57:52.492000+00:00,,2,19,in-ear earphones,9-12,Other (please specify below):,SONA for course credit,Chinese,Female,2-3,Not sure,"none, intuition",if certain notes repeat for many times,5.0,2-3,"Yes, but not so well",piano,Strongly Agree,Agree,if the musical notes fit well together,2020-11-22 05:28:32,38374,True
99,99,3247,Some notes felt more important than others.,50,likert,html-keyboard-response,304,647099,0.0-304.0,0 1 2 4 6,-3,"[0, 1, 3, 5, 11]",1,0 -3 2 -2 0 -3 8 -2 8 -2 2 8,331,somewhat disagree,2,SSSQ0003,38374,1,2020-11-22 07:57:52.492000+00:00,,2,19,in-ear earphones,9-12,Other (please specify below):,SONA for course credit,Chinese,Female,2-3,Not sure,"none, intuition",if certain notes repeat for many times,5.0,2-3,"Yes, but not so well",piano,Strongly Agree,Agree,if the musical notes fit well together,2020-11-22 05:28:32,38374,True
100,100,2204,The melody as a whole or parts of it felt familiar.,53,likert,html-keyboard-response,306,650306,0.0-306.0,0 1 2 4 6,-3,"[0, 1, 3, 5, 11]",1,0 -3 2 -2 0 -3 8 -2 8 -2 2 8,331,agree,5,SSSQ0003,38374,1,2020-11-22 07:57:52.492000+00:00,,2,19,in-ear earphones,9-12,Other (please specify below):,SONA for course credit,Chinese,Female,2-3,Not sure,"none, intuition",if certain notes repeat for many times,5.0,2-3,"Yes, but not so well",piano,Strongly Agree,Agree,if the musical notes fit well together,2020-11-22 05:28:32,38374,True
101,101,344,The audio clip was melodic.,53,likert,html-keyboard-response,308,651655,0.0-308.0,0 1 2 4 6,-3,"[0, 1, 3, 5, 11]",1,0 -3 2 -2 0 -3 8 -2 8 -2 2 8,331,agree,5,SSSQ0003,38374,1,2020-11-22 07:57:52.492000+00:00,,2,19,in-ear earphones,9-12,Other (please specify below):,SONA for course credit,Chinese,Female,2-3,Not sure,"none, intuition",if certain notes repeat for many times,5.0,2-3,"Yes, but not so well",piano,Strongly Agree,Agree,if the musical notes fit well together,2020-11-22 05:28:32,38374,True
102,102,14655,Some notes felt more important than others.,49,likert,html-keyboard-response,313,673067,0.0-313.0,0 4 5 6 7,-1,"[0, 5, 9, 10, 11]",4,8 4 10 11 9 11 4 -1 10 4 11 -1,341,disagree,1,SSSQ0003,38374,1,2020-11-22 07:57:52.492000+00:00,,2,19,in-ear earphones,9-12,Other (please specify below):,SONA for course credit,Chinese,Female,2-3,Not sure,"none, intuition",if certain notes repeat for many times,5.0,2-3,"Yes, but not so well",piano,Strongly Agree,Agree,if the musical notes fit well together,2020-11-22 05:28:32,38374,True
103,103,4455,The melody as a whole or parts of it felt familiar.,50,likert,html-keyboard-response,315,678528,0.0-315.0,0 4 5 6 7,-1,"[0, 5, 9, 10, 11]",4,8 4 10 11 9 11 4 -1 10 4 11 -1,341,somewhat disagree,2,SSSQ0003,38374,1,2020-11-22 07:57:52.492000+00:00,,2,19,in-ear earphones,9-12,Other (please specify below):,SONA for course credit,Chinese,Female,2-3,Not sure,"none, intuition",if certain notes repeat for many times,5.0,2-3,"Yes, but not so well",piano,Strongly Agree,Agree,if the musical notes fit well together,2020-11-22 05:28:32,38374,True
104,104,1198,The audio clip was melodic.,49,likert,html-keyboard-response,317,680728,0.0-317.0,0 4 5 6 7,-1,"[0, 5, 9, 10, 11]",4,8 4 10 11 9 11 4 -1 10 4 11 -1,341,disagree,1,SSSQ0003,38374,1,2020-11-22 07:57:52.492000+00:00,,2,19,in-ear earphones,9-12,Other (please specify below):,SONA for course credit,Chinese,Female,2-3,Not sure,"none, intuition",if certain notes repeat for many times,5.0,2-3,"Yes, but not so well",piano,Strongly Agree,Agree,if the musical notes fit well together,2020-11-22 05:28:32,38374,True
105,105,1631,Some notes felt more important than others.,53,likert,html-keyboard-response,322,689073,0.0-322.0,0 3 4 5 7,-1,"[0, 5, 8, 9, 10]",4,4 8 11 4 7 11 4 7 8 9 -1 8,351,agree,5,SSSQ0003,38374,1,2020-11-22 07:57:52.492000+00:00,,2,19,in-ear earphones,9-12,Other (please specify below):,SONA for course credit,Chinese,Female,2-3,Not sure,"none, intuition",if certain notes repeat for many times,5.0,2-3,"Yes, but not so well",piano,Strongly Agree,Agree,if the musical notes fit well together,2020-11-22 05:28:32,38374,True
106,106,2098,The melody as a whole or parts of it felt familiar.,50,likert,html-keyboard-response,324,692176,0.0-324.0,0 3 4 5 7,-1,"[0, 5, 8, 9, 10]",4,4 8 11 4 7 11 4 7 8 9 -1 8,351,somewhat disagree,2,SSSQ0003,38374,1,2020-11-22 07:57:52.492000+00:00,,2,19,in-ear earphones,9-12,Other (please specify below):,SONA for course credit,Chinese,Female,2-3,Not sure,"none, intuition",if certain notes repeat for many times,5.0,2-3,"Yes, but not so well",piano,Strongly Agree,Agree,if the musical notes fit well together,2020-11-22 05:28:32,38374,True
107,107,147,The audio clip was melodic.,53,likert,html-keyboard-response,326,693324,0.0-326.0,0 3 4 5 7,-1,"[0, 5, 8, 9, 10]",4,4 8 11 4 7 11 4 7 8 9 -1 8,351,agree,5,SSSQ0003,38374,1,2020-11-22 07:57:52.492000+00:00,,2,19,in-ear earphones,9-12,Other (please specify below):,SONA for course credit,Chinese,Female,2-3,Not sure,"none, intuition",if certain notes repeat for many times,5.0,2-3,"Yes, but not so well",piano,Strongly Agree,Agree,if the musical notes fit well together,2020-11-22 05:28:32,38374,True
108,108,344,Some notes felt more important than others.,52,likert,html-keyboard-response,331,699948,0.0-331.0,0 2 3 7 8,1,"[0, 4, 6, 7, 11]",4,13 8 13 7 5 1 8 12 1 12 13 5,361,somewhat agree,4,SSSQ0003,38374,1,2020-11-22 07:57:52.492000+00:00,,2,19,in-ear earphones,9-12,Other (please specify below):,SONA for course credit,Chinese,Female,2-3,Not sure,"none, intuition",if certain notes repeat for many times,5.0,2-3,"Yes, but not so well",piano,Strongly Agree,Agree,if the musical notes fit well together,2020-11-22 05:28:32,38374,True
109,109,2399,The melody as a whole or parts of it felt familiar.,53,likert,html-keyboard-response,333,703349,0.0-333.0,0 2 3 7 8,1,"[0, 4, 6, 7, 11]",4,13 8 13 7 5 1 8 12 1 12 13 5,361,agree,5,SSSQ0003,38374,1,2020-11-22 07:57:52.492000+00:00,,2,19,in-ear earphones,9-12,Other (please specify below):,SONA for course credit,Chinese,Female,2-3,Not sure,"none, intuition",if certain notes repeat for many times,5.0,2-3,"Yes, but not so well",piano,Strongly Agree,Agree,if the musical notes fit well together,2020-11-22 05:28:32,38374,True
110,110,351,The audio clip was melodic.,52,likert,html-keyboard-response,335,704703,0.0-335.0,0 2 3 7 8,1,"[0, 4, 6, 7, 11]",4,13 8 13 7 5 1 8 12 1 12 13 5,361,somewhat agree,4,SSSQ0003,38374,1,2020-11-22 07:57:52.492000+00:00,,2,19,in-ear earphones,9-12,Other (please specify below):,SONA for course credit,Chinese,Female,2-3,Not sure,"none, intuition",if certain notes repeat for many times,5.0,2-3,"Yes, but not so well",piano,Strongly Agree,Agree,if the musical notes fit well together,2020-11-22 05:28:32,38374,True
111,111,840,Some notes felt more important than others.,53,likert,html-keyboard-response,340,712270,0.0-340.0,0 4 5 6 7,3,"[0, 1, 2, 7, 11]",2,14 15 14 10 3 10 15 14 10 4 15 4,371,agree,5,SSSQ0003,38374,1,2020-11-22 07:57:52.492000+00:00,probe doesn't include all set's notes.,2,19,in-ear earphones,9-12,Other (please specify below):,SONA for course credit,Chinese,Female,2-3,Not sure,"none, intuition",if certain notes repeat for many times,5.0,2-3,"Yes, but not so well",piano,Strongly Agree,Agree,if the musical notes fit well together,2020-11-22 05:28:32,38374,True
112,112,362,The melody as a whole or parts of it felt familiar.,53,likert,html-keyboard-response,342,713636,0.0-342.0,0 4 5 6 7,3,"[0, 1, 2, 7, 11]",2,14 15 14 10 3 10 15 14 10 4 15 4,371,agree,5,SSSQ0003,38374,1,2020-11-22 07:57:52.492000+00:00,probe doesn't include all set's notes.,2,19,in-ear earphones,9-12,Other (please specify below):,SONA for course credit,Chinese,Female,2-3,Not sure,"none, intuition",if certain notes repeat for many times,5.0,2-3,"Yes, but not so well",piano,Strongly Agree,Agree,if the musical notes fit well together,2020-11-22 05:28:32,38374,True
113,113,320,The audio clip was melodic.,51,likert,html-keyboard-response,344,714958,0.0-344.0,0 4 5 6 7,3,"[0, 1, 2, 7, 11]",2,14 15 14 10 3 10 15 14 10 4 15 4,371,neutral,3,SSSQ0003,38374,1,2020-11-22 07:57:52.492000+00:00,probe doesn't include all set's notes.,2,19,in-ear earphones,9-12,Other (please specify below):,SONA for course credit,Chinese,Female,2-3,Not sure,"none, intuition",if certain notes repeat for many times,5.0,2-3,"Yes, but not so well",piano,Strongly Agree,Agree,if the musical notes fit well together,2020-11-22 05:28:32,38374,True
114,114,989,Some notes felt more important than others.,50,likert,html-keyboard-response,349,722268,0.0-349.0,0 1 2 5 6,-3,"[0, 3, 4, 10, 11]",2,8 7 1 -3 0 -3 8 7 0 1 9 7,381,somewhat disagree,2,SSSQ0003,38374,1,2020-11-22 07:57:52.492000+00:00,,2,19,in-ear earphones,9-12,Other (please specify below):,SONA for course credit,Chinese,Female,2-3,Not sure,"none, intuition",if certain notes repeat for many times,5.0,2-3,"Yes, but not so well",piano,Strongly Agree,Agree,if the musical notes fit well together,2020-11-22 05:28:32,38374,True
115,115,995,The melody as a whole or parts of it felt familiar.,52,likert,html-keyboard-response,351,724270,0.0-351.0,0 1 2 5 6,-3,"[0, 3, 4, 10, 11]",2,8 7 1 -3 0 -3 8 7 0 1 9 7,381,somewhat agree,4,SSSQ0003,38374,1,2020-11-22 07:57:52.492000+00:00,,2,19,in-ear earphones,9-12,Other (please specify below):,SONA for course credit,Chinese,Female,2-3,Not sure,"none, intuition",if certain notes repeat for many times,5.0,2-3,"Yes, but not so well",piano,Strongly Agree,Agree,if the musical notes fit well together,2020-11-22 05:28:32,38374,True
116,116,1599,The audio clip was melodic.,51,likert,html-keyboard-response,353,726872,0.0-353.0,0 1 2 5 6,-3,"[0, 3, 4, 10, 11]",2,8 7 1 -3 0 -3 8 7 0 1 9 7,381,neutral,3,SSSQ0003,38374,1,2020-11-22 07:57:52.492000+00:00,,2,19,in-ear earphones,9-12,Other (please specify below):,SONA for course credit,Chinese,Female,2-3,Not sure,"none, intuition",if certain notes repeat for many times,5.0,2-3,"Yes, but not so well",piano,Strongly Agree,Agree,if the musical notes fit well together,2020-11-22 05:28:32,38374,True
117,117,1557,Some notes felt more important than others.,53,likert,html-keyboard-response,358,734684,0.0-358.0,0 1 2 5 6,0,"[0, 1, 7, 8, 9]",3,7 1 8 1 9 1 12 7 0 7 8 7,391,agree,5,SSSQ0003,38374,1,2020-11-22 07:57:52.492000+00:00,,2,19,in-ear earphones,9-12,Other (please specify below):,SONA for course credit,Chinese,Female,2-3,Not sure,"none, intuition",if certain notes repeat for many times,5.0,2-3,"Yes, but not so well",piano,Strongly Agree,Agree,if the musical notes fit well together,2020-11-22 05:28:32,38374,True
118,118,1278,The melody as a whole or parts of it felt familiar.,53,likert,html-keyboard-response,360,736965,0.0-360.0,0 1 2 5 6,0,"[0, 1, 7, 8, 9]",3,7 1 8 1 9 1 12 7 0 7 8 7,391,agree,5,SSSQ0003,38374,1,2020-11-22 07:57:52.492000+00:00,,2,19,in-ear earphones,9-12,Other (please specify below):,SONA for course credit,Chinese,Female,2-3,Not sure,"none, intuition",if certain notes repeat for many times,5.0,2-3,"Yes, but not so well",piano,Strongly Agree,Agree,if the musical notes fit well together,2020-11-22 05:28:32,38374,True
119,119,1865,The audio clip was melodic.,53,likert,html-keyboard-response,362,739833,0.0-362.0,0 1 2 5 6,0,"[0, 1, 7, 8, 9]",3,7 1 8 1 9 1 12 7 0 7 8 7,391,agree,5,SSSQ0003,38374,1,2020-11-22 07:57:52.492000+00:00,,2,19,in-ear earphones,9-12,Other (please specify below):,SONA for course credit,Chinese,Female,2-3,Not sure,"none, intuition",if certain notes repeat for many times,5.0,2-3,"Yes, but not so well",piano,Strongly Agree,Agree,if the musical notes fit well together,2020-11-22 05:28:32,38374,True
120,120,1144,Some notes felt more important than others.,52,likert,html-keyboard-response,367,747431,0.0-367.0,0 1 4 7 8,-1,"[0, 1, 4, 7, 8]",0,11 7 3 11 6 -1 3 0 7 -1 7 3,401,somewhat agree,4,SSSQ0003,38374,1,2020-11-22 07:57:52.492000+00:00,,2,19,in-ear earphones,9-12,Other (please specify below):,SONA for course credit,Chinese,Female,2-3,Not sure,"none, intuition",if certain notes repeat for many times,5.0,2-3,"Yes, but not so well",piano,Strongly Agree,Agree,if the musical notes fit well together,2020-11-22 05:28:32,38374,True
121,121,1928,The melody as a whole or parts of it felt familiar.,53,likert,html-keyboard-response,369,750363,0.0-369.0,0 1 4 7 8,-1,"[0, 1, 4, 7, 8]",0,11 7 3 11 6 -1 3 0 7 -1 7 3,401,agree,5,SSSQ0003,38374,1,2020-11-22 07:57:52.492000+00:00,,2,19,in-ear earphones,9-12,Other (please specify below):,SONA for course credit,Chinese,Female,2-3,Not sure,"none, intuition",if certain notes repeat for many times,5.0,2-3,"Yes, but not so well",piano,Strongly Agree,Agree,if the musical notes fit well together,2020-11-22 05:28:32,38374,True
122,122,1103,The audio clip was melodic.,51,likert,html-keyboard-response,371,752469,0.0-371.0,0 1 4 7 8,-1,"[0, 1, 4, 7, 8]",0,11 7 3 11 6 -1 3 0 7 -1 7 3,401,neutral,3,SSSQ0003,38374,1,2020-11-22 07:57:52.492000+00:00,,2,19,in-ear earphones,9-12,Other (please specify below):,SONA for course credit,Chinese,Female,2-3,Not sure,"none, intuition",if certain notes repeat for many times,5.0,2-3,"Yes, but not so well",piano,Strongly Agree,Agree,if the musical notes fit well together,2020-11-22 05:28:32,38374,True
123,123,435,Some notes felt more important than others.,52,likert,html-keyboard-response,376,799948,0.0-376.0,0 1 4 6 8,-3,"[0, 2, 4, 8, 9]",2,5 -1 1 -1 5 6 9 -1 5 -3 6 5,411,somewhat agree,4,SSSQ0003,38374,1,2020-11-22 07:57:52.492000+00:00,,2,19,in-ear earphones,9-12,Other (please specify below):,SONA for course credit,Chinese,Female,2-3,Not sure,"none, intuition",if certain notes repeat for many times,5.0,2-3,"Yes, but not so well",piano,Strongly Agree,Agree,if the musical notes fit well together,2020-11-22 05:28:32,38374,True
124,124,3142,The melody as a whole or parts of it felt familiar.,51,likert,html-keyboard-response,378,804094,0.0-378.0,0 1 4 6 8,-3,"[0, 2, 4, 8, 9]",2,5 -1 1 -1 5 6 9 -1 5 -3 6 5,411,neutral,3,SSSQ0003,38374,1,2020-11-22 07:57:52.492000+00:00,,2,19,in-ear earphones,9-12,Other (please specify below):,SONA for course credit,Chinese,Female,2-3,Not sure,"none, intuition",if certain notes repeat for many times,5.0,2-3,"Yes, but not so well",piano,Strongly Agree,Agree,if the musical notes fit well together,2020-11-22 05:28:32,38374,True
125,125,1110,The audio clip was melodic.,50,likert,html-keyboard-response,380,806206,0.0-380.0,0 1 4 6 8,-3,"[0, 2, 4, 8, 9]",2,5 -1 1 -1 5 6 9 -1 5 -3 6 5,411,somewhat disagree,2,SSSQ0003,38374,1,2020-11-22 07:57:52.492000+00:00,,2,19,in-ear earphones,9-12,Other (please specify below):,SONA for course credit,Chinese,Female,2-3,Not sure,"none, intuition",if certain notes repeat for many times,5.0,2-3,"Yes, but not so well",piano,Strongly Agree,Agree,if the musical notes fit well together,2020-11-22 05:28:32,38374,True
126,126,2902,Some notes felt more important than others.,53,likert,html-keyboard-response,385,815407,0.0-385.0,0 2 4 7 9,-2,"[0, 3, 5, 7, 10]",4,3 8 3 1 -2 8 1 10 8 1 10 5,421,agree,5,SSSQ0003,38374,1,2020-11-22 07:57:52.492000+00:00,,2,19,in-ear earphones,9-12,Other (please specify below):,SONA for course credit,Chinese,Female,2-3,Not sure,"none, intuition",if certain notes repeat for many times,5.0,2-3,"Yes, but not so well",piano,Strongly Agree,Agree,if the musical notes fit well together,2020-11-22 05:28:32,38374,True
127,127,2004,The melody as a whole or parts of it felt familiar.,51,likert,html-keyboard-response,387,818415,0.0-387.0,0 2 4 7 9,-2,"[0, 3, 5, 7, 10]",4,3 8 3 1 -2 8 1 10 8 1 10 5,421,neutral,3,SSSQ0003,38374,1,2020-11-22 07:57:52.492000+00:00,,2,19,in-ear earphones,9-12,Other (please specify below):,SONA for course credit,Chinese,Female,2-3,Not sure,"none, intuition",if certain notes repeat for many times,5.0,2-3,"Yes, but not so well",piano,Strongly Agree,Agree,if the musical notes fit well together,2020-11-22 05:28:32,38374,True
128,128,1767,The audio clip was melodic.,51,likert,html-keyboard-response,389,821184,0.0-389.0,0 2 4 7 9,-2,"[0, 3, 5, 7, 10]",4,3 8 3 1 -2 8 1 10 8 1 10 5,421,neutral,3,SSSQ0003,38374,1,2020-11-22 07:57:52.492000+00:00,,2,19,in-ear earphones,9-12,Other (please specify below):,SONA for course credit,Chinese,Female,2-3,Not sure,"none, intuition",if certain notes repeat for many times,5.0,2-3,"Yes, but not so well",piano,Strongly Agree,Agree,if the musical notes fit well together,2020-11-22 05:28:32,38374,True
129,129,2198,Some notes felt more important than others.,51,likert,html-keyboard-response,394,829957,0.0-394.0,0 2 3 5 6,2,"[0, 6, 8, 9, 11]",4,10 14 13 10 14 11 2 8 13 10 2 8,431,neutral,3,SSSQ0003,38374,1,2020-11-22 07:57:52.492000+00:00,,2,19,in-ear earphones,9-12,Other (please specify below):,SONA for course credit,Chinese,Female,2-3,Not sure,"none, intuition",if certain notes repeat for many times,5.0,2-3,"Yes, but not so well",piano,Strongly Agree,Agree,if the musical notes fit well together,2020-11-22 05:28:32,38374,True
130,130,5163,The melody as a whole or parts of it felt familiar.,53,likert,html-keyboard-response,396,836126,0.0-396.0,0 2 3 5 6,2,"[0, 6, 8, 9, 11]",4,10 14 13 10 14 11 2 8 13 10 2 8,431,agree,5,SSSQ0003,38374,1,2020-11-22 07:57:52.492000+00:00,,2,19,in-ear earphones,9-12,Other (please specify below):,SONA for course credit,Chinese,Female,2-3,Not sure,"none, intuition",if certain notes repeat for many times,5.0,2-3,"Yes, but not so well",piano,Strongly Agree,Agree,if the musical notes fit well together,2020-11-22 05:28:32,38374,True
131,131,290,The audio clip was melodic.,52,likert,html-keyboard-response,398,837419,0.0-398.0,0 2 3 5 6,2,"[0, 6, 8, 9, 11]",4,10 14 13 10 14 11 2 8 13 10 2 8,431,somewhat agree,4,SSSQ0003,38374,1,2020-11-22 07:57:52.492000+00:00,,2,19,in-ear earphones,9-12,Other (please specify below):,SONA for course credit,Chinese,Female,2-3,Not sure,"none, intuition",if certain notes repeat for many times,5.0,2-3,"Yes, but not so well",piano,Strongly Agree,Agree,if the musical notes fit well together,2020-11-22 05:28:32,38374,True
132,132,4190,Some notes felt more important than others.,52,likert,html-keyboard-response,4,15077,0.0-4.0,0 1 2 3 5,0,"[0, 1, 2, 4, 11]",1,4 2 0 4 0 1 12 4 1 11 0 4,1,somewhat agree,4,SSSQ0003,38374,2,2020-11-22 08:17:58.187000+00:00,,2,19,in-ear earphones,9-12,Other (please specify below):,SONA for course credit,Chinese,Female,2-3,Not sure,"none, intuition",if certain notes repeat for many times,5.0,2-3,"Yes, but not so well",piano,Strongly Agree,Agree,if the musical notes fit well together,2020-11-22 05:28:32,38374,True
133,133,3503,The melody as a whole or parts of it felt familiar.,53,likert,html-keyboard-response,6,19586,0.0-6.0,0 1 2 3 5,0,"[0, 1, 2, 4, 11]",1,4 2 0 4 0 1 12 4 1 11 0 4,1,agree,5,SSSQ0003,38374,2,2020-11-22 08:17:58.187000+00:00,,2,19,in-ear earphones,9-12,Other (please specify below):,SONA for course credit,Chinese,Female,2-3,Not sure,"none, intuition",if certain notes repeat for many times,5.0,2-3,"Yes, but not so well",piano,Strongly Agree,Agree,if the musical notes fit well together,2020-11-22 05:28:32,38374,True
134,134,3206,The audio clip was melodic.,52,likert,html-keyboard-response,8,23793,0.0-8.0,0 1 2 3 5,0,"[0, 1, 2, 4, 11]",1,4 2 0 4 0 1 12 4 1 11 0 4,1,somewhat agree,4,SSSQ0003,38374,2,2020-11-22 08:17:58.187000+00:00,,2,19,in-ear earphones,9-12,Other (please specify below):,SONA for course credit,Chinese,Female,2-3,Not sure,"none, intuition",if certain notes repeat for many times,5.0,2-3,"Yes, but not so well",piano,Strongly Agree,Agree,if the musical notes fit well together,2020-11-22 05:28:32,38374,True
135,135,22948,Some notes felt more important than others.,51,likert,html-keyboard-response,13,53125,0.0-13.0,0 2 3 7 8,-2,"[0, 2, 3, 7, 8]",0,5 6 1 6 10 6 5 0 10 6 1 -2,11,neutral,3,SSSQ0003,38374,2,2020-11-22 08:17:58.187000+00:00,,2,19,in-ear earphones,9-12,Other (please specify below):,SONA for course credit,Chinese,Female,2-3,Not sure,"none, intuition",if certain notes repeat for many times,5.0,2-3,"Yes, but not so well",piano,Strongly Agree,Agree,if the musical notes fit well together,2020-11-22 05:28:32,38374,True
136,136,1761,The melody as a whole or parts of it felt familiar.,52,likert,html-keyboard-response,15,55890,0.0-15.0,0 2 3 7 8,-2,"[0, 2, 3, 7, 8]",0,5 6 1 6 10 6 5 0 10 6 1 -2,11,somewhat agree,4,SSSQ0003,38374,2,2020-11-22 08:17:58.187000+00:00,,2,19,in-ear earphones,9-12,Other (please specify below):,SONA for course credit,Chinese,Female,2-3,Not sure,"none, intuition",if certain notes repeat for many times,5.0,2-3,"Yes, but not so well",piano,Strongly Agree,Agree,if the musical notes fit well together,2020-11-22 05:28:32,38374,True
137,137,313,The audio clip was melodic.,50,likert,html-keyboard-response,17,57205,0.0-17.0,0 2 3 7 8,-2,"[0, 2, 3, 7, 8]",0,5 6 1 6 10 6 5 0 10 6 1 -2,11,somewhat disagree,2,SSSQ0003,38374,2,2020-11-22 08:17:58.187000+00:00,,2,19,in-ear earphones,9-12,Other (please specify below):,SONA for course credit,Chinese,Female,2-3,Not sure,"none, intuition",if certain notes repeat for many times,5.0,2-3,"Yes, but not so well",piano,Strongly Agree,Agree,if the musical notes fit well together,2020-11-22 05:28:32,38374,True
138,138,1738,Some notes felt more important than others.,53,likert,html-keyboard-response,22,65242,0.0-22.0,0 2 5 6 7,-2,"[0, 1, 2, 7, 9]",2,10 7 10 7 -1 -2 0 7 -1 -2 7 -2,21,agree,5,SSSQ0003,38374,2,2020-11-22 08:17:58.187000+00:00,probe doesn't include all set's notes.,2,19,in-ear earphones,9-12,Other (please specify below):,SONA for course credit,Chinese,Female,2-3,Not sure,"none, intuition",if certain notes repeat for many times,5.0,2-3,"Yes, but not so well",piano,Strongly Agree,Agree,if the musical notes fit well together,2020-11-22 05:28:32,38374,True
139,139,275,The melody as a whole or parts of it felt familiar.,53,likert,html-keyboard-response,24,66518,0.0-24.0,0 2 5 6 7,-2,"[0, 1, 2, 7, 9]",2,10 7 10 7 -1 -2 0 7 -1 -2 7 -2,21,agree,5,SSSQ0003,38374,2,2020-11-22 08:17:58.187000+00:00,probe doesn't include all set's notes.,2,19,in-ear earphones,9-12,Other (please specify below):,SONA for course credit,Chinese,Female,2-3,Not sure,"none, intuition",if certain notes repeat for many times,5.0,2-3,"Yes, but not so well",piano,Strongly Agree,Agree,if the musical notes fit well together,2020-11-22 05:28:32,38374,True
140,140,140,The audio clip was melodic.,50,likert,html-keyboard-response,26,67660,0.0-26.0,0 2 5 6 7,-2,"[0, 1, 2, 7, 9]",2,10 7 10 7 -1 -2 0 7 -1 -2 7 -2,21,somewhat disagree,2,SSSQ0003,38374,2,2020-11-22 08:17:58.187000+00:00,probe doesn't include all set's notes.,2,19,in-ear earphones,9-12,Other (please specify below):,SONA for course credit,Chinese,Female,2-3,Not sure,"none, intuition",if certain notes repeat for many times,5.0,2-3,"Yes, but not so well",piano,Strongly Agree,Agree,if the musical notes fit well together,2020-11-22 05:28:32,38374,True
141,141,2873,Some notes felt more important than others.,53,likert,html-keyboard-response,31,76576,0.0-31.0,0 1 2 5 6,2,"[0, 3, 4, 10, 11]",2,13 12 13 5 6 5 12 2 5 14 5 13,31,agree,5,SSSQ0003,38374,2,2020-11-22 08:17:58.187000+00:00,,2,19,in-ear earphones,9-12,Other (please specify below):,SONA for course credit,Chinese,Female,2-3,Not sure,"none, intuition",if certain notes repeat for many times,5.0,2-3,"Yes, but not so well",piano,Strongly Agree,Agree,if the musical notes fit well together,2020-11-22 05:28:32,38374,True
142,142,2088,The melody as a whole or parts of it felt familiar.,51,likert,html-keyboard-response,33,79668,0.0-33.0,0 1 2 5 6,2,"[0, 3, 4, 10, 11]",2,13 12 13 5 6 5 12 2 5 14 5 13,31,neutral,3,SSSQ0003,38374,2,2020-11-22 08:17:58.187000+00:00,,2,19,in-ear earphones,9-12,Other (please specify below):,SONA for course credit,Chinese,Female,2-3,Not sure,"none, intuition",if certain notes repeat for many times,5.0,2-3,"Yes, but not so well",piano,Strongly Agree,Agree,if the musical notes fit well together,2020-11-22 05:28:32,38374,True
143,143,1018,The audio clip was melodic.,52,likert,html-keyboard-response,35,81689,0.0-35.0,0 1 2 5 6,2,"[0, 3, 4, 10, 11]",2,13 12 13 5 6 5 12 2 5 14 5 13,31,somewhat agree,4,SSSQ0003,38374,2,2020-11-22 08:17:58.187000+00:00,,2,19,in-ear earphones,9-12,Other (please specify below):,SONA for course credit,Chinese,Female,2-3,Not sure,"none, intuition",if certain notes repeat for many times,5.0,2-3,"Yes, but not so well",piano,Strongly Agree,Agree,if the musical notes fit well together,2020-11-22 05:28:32,38374,True
144,144,555,Some notes felt more important than others.,53,likert,html-keyboard-response,40,88538,0.0-40.0,0 2 4 7 9,-1,"[0, 3, 5, 7, 10]",4,-1 2 6 2 9 2 11 4 -1 2 -1 9,41,agree,5,SSSQ0003,38374,2,2020-11-22 08:17:58.187000+00:00,,2,19,in-ear earphones,9-12,Other (please specify below):,SONA for course credit,Chinese,Female,2-3,Not sure,"none, intuition",if certain notes repeat for many times,5.0,2-3,"Yes, but not so well",piano,Strongly Agree,Agree,if the musical notes fit well together,2020-11-22 05:28:32,38374,True
145,145,2016,The melody as a whole or parts of it felt familiar.,53,likert,html-keyboard-response,42,91560,0.0-42.0,0 2 4 7 9,-1,"[0, 3, 5, 7, 10]",4,-1 2 6 2 9 2 11 4 -1 2 -1 9,41,agree,5,SSSQ0003,38374,2,2020-11-22 08:17:58.187000+00:00,,2,19,in-ear earphones,9-12,Other (please specify below):,SONA for course credit,Chinese,Female,2-3,Not sure,"none, intuition",if certain notes repeat for many times,5.0,2-3,"Yes, but not so well",piano,Strongly Agree,Agree,if the musical notes fit well together,2020-11-22 05:28:32,38374,True
146,146,438,The audio clip was melodic.,52,likert,html-keyboard-response,44,93002,0.0-44.0,0 2 4 7 9,-1,"[0, 3, 5, 7, 10]",4,-1 2 6 2 9 2 11 4 -1 2 -1 9,41,somewhat agree,4,SSSQ0003,38374,2,2020-11-22 08:17:58.187000+00:00,,2,19,in-ear earphones,9-12,Other (please specify below):,SONA for course credit,Chinese,Female,2-3,Not sure,"none, intuition",if certain notes repeat for many times,5.0,2-3,"Yes, but not so well",piano,Strongly Agree,Agree,if the musical notes fit well together,2020-11-22 05:28:32,38374,True
147,147,10255,Some notes felt more important than others.,53,likert,html-keyboard-response,49,109725,0.0-49.0,0 2 5 6 7,0,"[0, 2, 5, 6, 7]",0,7 2 6 0 5 2 6 0 12 7 5 0,51,agree,5,SSSQ0003,38374,2,2020-11-22 08:17:58.187000+00:00,,2,19,in-ear earphones,9-12,Other (please specify below):,SONA for course credit,Chinese,Female,2-3,Not sure,"none, intuition",if certain notes repeat for many times,5.0,2-3,"Yes, but not so well",piano,Strongly Agree,Agree,if the musical notes fit well together,2020-11-22 05:28:32,38374,True
148,148,17185,The melody as a whole or parts of it felt familiar.,52,likert,html-keyboard-response,51,127912,0.0-51.0,0 2 5 6 7,0,"[0, 2, 5, 6, 7]",0,7 2 6 0 5 2 6 0 12 7 5 0,51,somewhat agree,4,SSSQ0003,38374,2,2020-11-22 08:17:58.187000+00:00,,2,19,in-ear earphones,9-12,Other (please specify below):,SONA for course credit,Chinese,Female,2-3,Not sure,"none, intuition",if certain notes repeat for many times,5.0,2-3,"Yes, but not so well",piano,Strongly Agree,Agree,if the musical notes fit well together,2020-11-22 05:28:32,38374,True
149,149,2621,The audio clip was melodic.,53,likert,html-keyboard-response,53,131539,0.0-53.0,0 2 5 6 7,0,"[0, 2, 5, 6, 7]",0,7 2 6 0 5 2 6 0 12 7 5 0,51,agree,5,SSSQ0003,38374,2,2020-11-22 08:17:58.187000+00:00,,2,19,in-ear earphones,9-12,Other (please specify below):,SONA for course credit,Chinese,Female,2-3,Not sure,"none, intuition",if certain notes repeat for many times,5.0,2-3,"Yes, but not so well",piano,Strongly Agree,Agree,if the musical notes fit well together,2020-11-22 05:28:32,38374,True
150,150,2247,Some notes felt more important than others.,51,likert,html-keyboard-response,58,175147,0.0-58.0,0 2 4 7 8,1,"[0, 4, 6, 8, 11]",4,12 13 9 7 9 12 7 1 12 1 5 13,61,neutral,3,SSSQ0003,38374,2,2020-11-22 08:17:58.187000+00:00,,2,19,in-ear earphones,9-12,Other (please specify below):,SONA for course credit,Chinese,Female,2-3,Not sure,"none, intuition",if certain notes repeat for many times,5.0,2-3,"Yes, but not so well",piano,Strongly Agree,Agree,if the musical notes fit well together,2020-11-22 05:28:32,38374,True
151,151,4451,The melody as a whole or parts of it felt familiar.,53,likert,html-keyboard-response,60,180603,0.0-60.0,0 2 4 7 8,1,"[0, 4, 6, 8, 11]",4,12 13 9 7 9 12 7 1 12 1 5 13,61,agree,5,SSSQ0003,38374,2,2020-11-22 08:17:58.187000+00:00,,2,19,in-ear earphones,9-12,Other (please specify below):,SONA for course credit,Chinese,Female,2-3,Not sure,"none, intuition",if certain notes repeat for many times,5.0,2-3,"Yes, but not so well",piano,Strongly Agree,Agree,if the musical notes fit well together,2020-11-22 05:28:32,38374,True
152,152,578,The audio clip was melodic.,52,likert,html-keyboard-response,62,182185,0.0-62.0,0 2 4 7 8,1,"[0, 4, 6, 8, 11]",4,12 13 9 7 9 12 7 1 12 1 5 13,61,somewhat agree,4,SSSQ0003,38374,2,2020-11-22 08:17:58.187000+00:00,,2,19,in-ear earphones,9-12,Other (please specify below):,SONA for course credit,Chinese,Female,2-3,Not sure,"none, intuition",if certain notes repeat for many times,5.0,2-3,"Yes, but not so well",piano,Strongly Agree,Agree,if the musical notes fit well together,2020-11-22 05:28:32,38374,True
153,153,348,Some notes felt more important than others.,53,likert,html-keyboard-response,67,198047,0.0-67.0,0 1 2 4 8,1,"[0, 4, 8, 9, 10]",3,10 13 11 13 5 13 11 9 10 9 1 13,71,agree,5,SSSQ0003,38374,2,2020-11-22 08:17:58.187000+00:00,,2,19,in-ear earphones,9-12,Other (please specify below):,SONA for course credit,Chinese,Female,2-3,Not sure,"none, intuition",if certain notes repeat for many times,5.0,2-3,"Yes, but not so well",piano,Strongly Agree,Agree,if the musical notes fit well together,2020-11-22 05:28:32,38374,True
154,154,175,The melody as a whole or parts of it felt familiar.,53,likert,html-keyboard-response,69,199226,0.0-69.0,0 1 2 4 8,1,"[0, 4, 8, 9, 10]",3,10 13 11 13 5 13 11 9 10 9 1 13,71,agree,5,SSSQ0003,38374,2,2020-11-22 08:17:58.187000+00:00,,2,19,in-ear earphones,9-12,Other (please specify below):,SONA for course credit,Chinese,Female,2-3,Not sure,"none, intuition",if certain notes repeat for many times,5.0,2-3,"Yes, but not so well",piano,Strongly Agree,Agree,if the musical notes fit well together,2020-11-22 05:28:32,38374,True
155,155,381,The audio clip was melodic.,53,likert,html-keyboard-response,71,200610,0.0-71.0,0 1 2 4 8,1,"[0, 4, 8, 9, 10]",3,10 13 11 13 5 13 11 9 10 9 1 13,71,agree,5,SSSQ0003,38374,2,2020-11-22 08:17:58.187000+00:00,,2,19,in-ear earphones,9-12,Other (please specify below):,SONA for course credit,Chinese,Female,2-3,Not sure,"none, intuition",if certain notes repeat for many times,5.0,2-3,"Yes, but not so well",piano,Strongly Agree,Agree,if the musical notes fit well together,2020-11-22 05:28:32,38374,True
156,156,378,Some notes felt more important than others.,52,likert,html-keyboard-response,76,211138,0.0-76.0,0 3 4 6 7,-3,"[0, 1, 6, 9, 10]",3,3 6 3 -3 -2 -3 3 6 -3 3 -3 7,81,somewhat agree,4,SSSQ0003,38374,2,2020-11-22 08:17:58.187000+00:00,,2,19,in-ear earphones,9-12,Other (please specify below):,SONA for course credit,Chinese,Female,2-3,Not sure,"none, intuition",if certain notes repeat for many times,5.0,2-3,"Yes, but not so well",piano,Strongly Agree,Agree,if the musical notes fit well together,2020-11-22 05:28:32,38374,True
157,157,1060,The melody as a whole or parts of it felt familiar.,50,likert,html-keyboard-response,78,213202,0.0-78.0,0 3 4 6 7,-3,"[0, 1, 6, 9, 10]",3,3 6 3 -3 -2 -3 3 6 -3 3 -3 7,81,somewhat disagree,2,SSSQ0003,38374,2,2020-11-22 08:17:58.187000+00:00,,2,19,in-ear earphones,9-12,Other (please specify below):,SONA for course credit,Chinese,Female,2-3,Not sure,"none, intuition",if certain notes repeat for many times,5.0,2-3,"Yes, but not so well",piano,Strongly Agree,Agree,if the musical notes fit well together,2020-11-22 05:28:32,38374,True
158,158,1318,The audio clip was melodic.,52,likert,html-keyboard-response,80,215522,0.0-80.0,0 3 4 6 7,-3,"[0, 1, 6, 9, 10]",3,3 6 3 -3 -2 -3 3 6 -3 3 -3 7,81,somewhat agree,4,SSSQ0003,38374,2,2020-11-22 08:17:58.187000+00:00,,2,19,in-ear earphones,9-12,Other (please specify below):,SONA for course credit,Chinese,Female,2-3,Not sure,"none, intuition",if certain notes repeat for many times,5.0,2-3,"Yes, but not so well",piano,Strongly Agree,Agree,if the musical notes fit well together,2020-11-22 05:28:32,38374,True
159,159,1073,Some notes felt more important than others.,51,likert,html-keyboard-response,85,222967,0.0-85.0,0 2 5 6 7,-1,"[0, 1, 6, 8, 11]",3,11 5 11 5 0 -1 10 5 0 7 11 0,91,neutral,3,SSSQ0003,38374,2,2020-11-22 08:17:58.187000+00:00,,2,19,in-ear earphones,9-12,Other (please specify below):,SONA for course credit,Chinese,Female,2-3,Not sure,"none, intuition",if certain notes repeat for many times,5.0,2-3,"Yes, but not so well",piano,Strongly Agree,Agree,if the musical notes fit well together,2020-11-22 05:28:32,38374,True
160,160,3637,The melody as a whole or parts of it felt familiar.,53,likert,html-keyboard-response,87,227609,0.0-87.0,0 2 5 6 7,-1,"[0, 1, 6, 8, 11]",3,11 5 11 5 0 -1 10 5 0 7 11 0,91,agree,5,SSSQ0003,38374,2,2020-11-22 08:17:58.187000+00:00,,2,19,in-ear earphones,9-12,Other (please specify below):,SONA for course credit,Chinese,Female,2-3,Not sure,"none, intuition",if certain notes repeat for many times,5.0,2-3,"Yes, but not so well",piano,Strongly Agree,Agree,if the musical notes fit well together,2020-11-22 05:28:32,38374,True
161,161,902,The audio clip was melodic.,50,likert,html-keyboard-response,89,229512,0.0-89.0,0 2 5 6 7,-1,"[0, 1, 6, 8, 11]",3,11 5 11 5 0 -1 10 5 0 7 11 0,91,somewhat disagree,2,SSSQ0003,38374,2,2020-11-22 08:17:58.187000+00:00,,2,19,in-ear earphones,9-12,Other (please specify below):,SONA for course credit,Chinese,Female,2-3,Not sure,"none, intuition",if certain notes repeat for many times,5.0,2-3,"Yes, but not so well",piano,Strongly Agree,Agree,if the musical notes fit well together,2020-11-22 05:28:32,38374,True
162,162,2635,Some notes felt more important than others.,53,likert,html-keyboard-response,94,295209,0.0-94.0,0 1 4 7 8,0,"[0, 4, 5, 8, 11]",4,4 0 4 0 8 12 4 8 12 0 5 11,101,agree,5,SSSQ0003,38374,2,2020-11-22 08:17:58.187000+00:00,,2,19,in-ear earphones,9-12,Other (please specify below):,SONA for course credit,Chinese,Female,2-3,Not sure,"none, intuition",if certain notes repeat for many times,5.0,2-3,"Yes, but not so well",piano,Strongly Agree,Agree,if the musical notes fit well together,2020-11-22 05:28:32,38374,True
163,163,593,The melody as a whole or parts of it felt familiar.,51,likert,html-keyboard-response,96,296807,0.0-96.0,0 1 4 7 8,0,"[0, 4, 5, 8, 11]",4,4 0 4 0 8 12 4 8 12 0 5 11,101,neutral,3,SSSQ0003,38374,2,2020-11-22 08:17:58.187000+00:00,,2,19,in-ear earphones,9-12,Other (please specify below):,SONA for course credit,Chinese,Female,2-3,Not sure,"none, intuition",if certain notes repeat for many times,5.0,2-3,"Yes, but not so well",piano,Strongly Agree,Agree,if the musical notes fit well together,2020-11-22 05:28:32,38374,True
164,164,357,The audio clip was melodic.,50,likert,html-keyboard-response,98,298167,0.0-98.0,0 1 4 7 8,0,"[0, 4, 5, 8, 11]",4,4 0 4 0 8 12 4 8 12 0 5 11,101,somewhat disagree,2,SSSQ0003,38374,2,2020-11-22 08:17:58.187000+00:00,,2,19,in-ear earphones,9-12,Other (please specify below):,SONA for course credit,Chinese,Female,2-3,Not sure,"none, intuition",if certain notes repeat for many times,5.0,2-3,"Yes, but not so well",piano,Strongly Agree,Agree,if the musical notes fit well together,2020-11-22 05:28:32,38374,True
165,165,868,Some notes felt more important than others.,51,likert,html-keyboard-response,103,310985,0.0-103.0,0 2 4 7 9,-3,"[0, 3, 5, 7, 10]",4,4 9 4 0 -3 0 7 2 -3 2 9 0,111,neutral,3,SSSQ0003,38374,2,2020-11-22 08:17:58.187000+00:00,,2,19,in-ear earphones,9-12,Other (please specify below):,SONA for course credit,Chinese,Female,2-3,Not sure,"none, intuition",if certain notes repeat for many times,5.0,2-3,"Yes, but not so well",piano,Strongly Agree,Agree,if the musical notes fit well together,2020-11-22 05:28:32,38374,True
166,166,2136,The melody as a whole or parts of it felt familiar.,51,likert,html-keyboard-response,105,314122,0.0-105.0,0 2 4 7 9,-3,"[0, 3, 5, 7, 10]",4,4 9 4 0 -3 0 7 2 -3 2 9 0,111,neutral,3,SSSQ0003,38374,2,2020-11-22 08:17:58.187000+00:00,,2,19,in-ear earphones,9-12,Other (please specify below):,SONA for course credit,Chinese,Female,2-3,Not sure,"none, intuition",if certain notes repeat for many times,5.0,2-3,"Yes, but not so well",piano,Strongly Agree,Agree,if the musical notes fit well together,2020-11-22 05:28:32,38374,True
167,167,378,The audio clip was melodic.,50,likert,html-keyboard-response,107,315505,0.0-107.0,0 2 4 7 9,-3,"[0, 3, 5, 7, 10]",4,4 9 4 0 -3 0 7 2 -3 2 9 0,111,somewhat disagree,2,SSSQ0003,38374,2,2020-11-22 08:17:58.187000+00:00,,2,19,in-ear earphones,9-12,Other (please specify below):,SONA for course credit,Chinese,Female,2-3,Not sure,"none, intuition",if certain notes repeat for many times,5.0,2-3,"Yes, but not so well",piano,Strongly Agree,Agree,if the musical notes fit well together,2020-11-22 05:28:32,38374,True
168,168,1059,Some notes felt more important than others.,50,likert,html-keyboard-response,112,327604,0.0-112.0,0 1 2 4 6,2,"[0, 2, 4, 10, 11]",2,12 13 14 6 2 4 14 2 12 13 4 13,121,somewhat disagree,2,SSSQ0003,38374,2,2020-11-22 08:17:58.187000+00:00,,2,19,in-ear earphones,9-12,Other (please specify below):,SONA for course credit,Chinese,Female,2-3,Not sure,"none, intuition",if certain notes repeat for many times,5.0,2-3,"Yes, but not so well",piano,Strongly Agree,Agree,if the musical notes fit well together,2020-11-22 05:28:32,38374,True
169,169,420,The melody as a whole or parts of it felt familiar.,53,likert,html-keyboard-response,114,329026,0.0-114.0,0 1 2 4 6,2,"[0, 2, 4, 10, 11]",2,12 13 14 6 2 4 14 2 12 13 4 13,121,agree,5,SSSQ0003,38374,2,2020-11-22 08:17:58.187000+00:00,,2,19,in-ear earphones,9-12,Other (please specify below):,SONA for course credit,Chinese,Female,2-3,Not sure,"none, intuition",if certain notes repeat for many times,5.0,2-3,"Yes, but not so well",piano,Strongly Agree,Agree,if the musical notes fit well together,2020-11-22 05:28:32,38374,True
170,170,681,The audio clip was melodic.,52,likert,html-keyboard-response,116,330709,0.0-116.0,0 1 2 4 6,2,"[0, 2, 4, 10, 11]",2,12 13 14 6 2 4 14 2 12 13 4 13,121,somewhat agree,4,SSSQ0003,38374,2,2020-11-22 08:17:58.187000+00:00,,2,19,in-ear earphones,9-12,Other (please specify below):,SONA for course credit,Chinese,Female,2-3,Not sure,"none, intuition",if certain notes repeat for many times,5.0,2-3,"Yes, but not so well",piano,Strongly Agree,Agree,if the musical notes fit well together,2020-11-22 05:28:32,38374,True
171,171,10384,Some notes felt more important than others.,52,likert,html-keyboard-response,121,347425,0.0-121.0,0 2 3 5 6,-3,"[0, 2, 3, 5, 6]",0,2 -3 0 2 -1 3 0 2 3 -1 3 -1,131,somewhat agree,4,SSSQ0003,38374,2,2020-11-22 08:17:58.187000+00:00,,2,19,in-ear earphones,9-12,Other (please specify below):,SONA for course credit,Chinese,Female,2-3,Not sure,"none, intuition",if certain notes repeat for many times,5.0,2-3,"Yes, but not so well",piano,Strongly Agree,Agree,if the musical notes fit well together,2020-11-22 05:28:32,38374,True
172,172,2375,The melody as a whole or parts of it felt familiar.,51,likert,html-keyboard-response,123,350802,0.0-123.0,0 2 3 5 6,-3,"[0, 2, 3, 5, 6]",0,2 -3 0 2 -1 3 0 2 3 -1 3 -1,131,neutral,3,SSSQ0003,38374,2,2020-11-22 08:17:58.187000+00:00,,2,19,in-ear earphones,9-12,Other (please specify below):,SONA for course credit,Chinese,Female,2-3,Not sure,"none, intuition",if certain notes repeat for many times,5.0,2-3,"Yes, but not so well",piano,Strongly Agree,Agree,if the musical notes fit well together,2020-11-22 05:28:32,38374,True
173,173,2489,The audio clip was melodic.,52,likert,html-keyboard-response,125,354293,0.0-125.0,0 2 3 5 6,-3,"[0, 2, 3, 5, 6]",0,2 -3 0 2 -1 3 0 2 3 -1 3 -1,131,somewhat agree,4,SSSQ0003,38374,2,2020-11-22 08:17:58.187000+00:00,,2,19,in-ear earphones,9-12,Other (please specify below):,SONA for course credit,Chinese,Female,2-3,Not sure,"none, intuition",if certain notes repeat for many times,5.0,2-3,"Yes, but not so well",piano,Strongly Agree,Agree,if the musical notes fit well together,2020-11-22 05:28:32,38374,True
174,174,316,Some notes felt more important than others.,53,likert,html-keyboard-response,130,360943,0.0-130.0,0 1 2 5 6,1,"[0, 1, 7, 8, 9]",3,13 10 13 10 13 9 10 1 9 8 1 2,141,agree,5,SSSQ0003,38374,2,2020-11-22 08:17:58.187000+00:00,,2,19,in-ear earphones,9-12,Other (please specify below):,SONA for course credit,Chinese,Female,2-3,Not sure,"none, intuition",if certain notes repeat for many times,5.0,2-3,"Yes, but not so well",piano,Strongly Agree,Agree,if the musical notes fit well together,2020-11-22 05:28:32,38374,True
175,175,331,The melody as a whole or parts of it felt familiar.,53,likert,html-keyboard-response,132,362278,0.0-132.0,0 1 2 5 6,1,"[0, 1, 7, 8, 9]",3,13 10 13 10 13 9 10 1 9 8 1 2,141,agree,5,SSSQ0003,38374,2,2020-11-22 08:17:58.187000+00:00,,2,19,in-ear earphones,9-12,Other (please specify below):,SONA for course credit,Chinese,Female,2-3,Not sure,"none, intuition",if certain notes repeat for many times,5.0,2-3,"Yes, but not so well",piano,Strongly Agree,Agree,if the musical notes fit well together,2020-11-22 05:28:32,38374,True
176,176,720,The audio clip was melodic.,52,likert,html-keyboard-response,134,364003,0.0-134.0,0 1 2 5 6,1,"[0, 1, 7, 8, 9]",3,13 10 13 10 13 9 10 1 9 8 1 2,141,somewhat agree,4,SSSQ0003,38374,2,2020-11-22 08:17:58.187000+00:00,,2,19,in-ear earphones,9-12,Other (please specify below):,SONA for course credit,Chinese,Female,2-3,Not sure,"none, intuition",if certain notes repeat for many times,5.0,2-3,"Yes, but not so well",piano,Strongly Agree,Agree,if the musical notes fit well together,2020-11-22 05:28:32,38374,True
177,177,11131,Some notes felt more important than others.,53,likert,html-keyboard-response,139,381596,0.0-139.0,0 1 4 5 7,-1,"[0, 5, 6, 9, 10]",4,5 -1 5 -1 4 11 8 -1 5 11 -1 4,151,agree,5,SSSQ0003,38374,2,2020-11-22 08:17:58.187000+00:00,probe doesn't include all set's notes.,2,19,in-ear earphones,9-12,Other (please specify below):,SONA for course credit,Chinese,Female,2-3,Not sure,"none, intuition",if certain notes repeat for many times,5.0,2-3,"Yes, but not so well",piano,Strongly Agree,Agree,if the musical notes fit well together,2020-11-22 05:28:32,38374,True
178,178,309,The melody as a whole or parts of it felt familiar.,53,likert,html-keyboard-response,141,382907,0.0-141.0,0 1 4 5 7,-1,"[0, 5, 6, 9, 10]",4,5 -1 5 -1 4 11 8 -1 5 11 -1 4,151,agree,5,SSSQ0003,38374,2,2020-11-22 08:17:58.187000+00:00,probe doesn't include all set's notes.,2,19,in-ear earphones,9-12,Other (please specify below):,SONA for course credit,Chinese,Female,2-3,Not sure,"none, intuition",if certain notes repeat for many times,5.0,2-3,"Yes, but not so well",piano,Strongly Agree,Agree,if the musical notes fit well together,2020-11-22 05:28:32,38374,True
179,179,228,The audio clip was melodic.,52,likert,html-keyboard-response,143,384138,0.0-143.0,0 1 4 5 7,-1,"[0, 5, 6, 9, 10]",4,5 -1 5 -1 4 11 8 -1 5 11 -1 4,151,somewhat agree,4,SSSQ0003,38374,2,2020-11-22 08:17:58.187000+00:00,probe doesn't include all set's notes.,2,19,in-ear earphones,9-12,Other (please specify below):,SONA for course credit,Chinese,Female,2-3,Not sure,"none, intuition",if certain notes repeat for many times,5.0,2-3,"Yes, but not so well",piano,Strongly Agree,Agree,if the musical notes fit well together,2020-11-22 05:28:32,38374,True
180,180,2962,Some notes felt more important than others.,51,likert,html-keyboard-response,148,393390,0.0-148.0,0 2 4 7 9,2,"[0, 2, 5, 7, 10]",1,14 9 12 7 4 2 7 14 4 2 7 9,161,neutral,3,SSSQ0003,38374,2,2020-11-22 08:17:58.187000+00:00,,2,19,in-ear earphones,9-12,Other (please specify below):,SONA for course credit,Chinese,Female,2-3,Not sure,"none, intuition",if certain notes repeat for many times,5.0,2-3,"Yes, but not so well",piano,Strongly Agree,Agree,if the musical notes fit well together,2020-11-22 05:28:32,38374,True
181,181,971,The melody as a whole or parts of it felt familiar.,50,likert,html-keyboard-response,150,395364,0.0-150.0,0 2 4 7 9,2,"[0, 2, 5, 7, 10]",1,14 9 12 7 4 2 7 14 4 2 7 9,161,somewhat disagree,2,SSSQ0003,38374,2,2020-11-22 08:17:58.187000+00:00,,2,19,in-ear earphones,9-12,Other (please specify below):,SONA for course credit,Chinese,Female,2-3,Not sure,"none, intuition",if certain notes repeat for many times,5.0,2-3,"Yes, but not so well",piano,Strongly Agree,Agree,if the musical notes fit well together,2020-11-22 05:28:32,38374,True
182,182,1851,The audio clip was melodic.,51,likert,html-keyboard-response,152,398218,0.0-152.0,0 2 4 7 9,2,"[0, 2, 5, 7, 10]",1,14 9 12 7 4 2 7 14 4 2 7 9,161,neutral,3,SSSQ0003,38374,2,2020-11-22 08:17:58.187000+00:00,,2,19,in-ear earphones,9-12,Other (please specify below):,SONA for course credit,Chinese,Female,2-3,Not sure,"none, intuition",if certain notes repeat for many times,5.0,2-3,"Yes, but not so well",piano,Strongly Agree,Agree,if the musical notes fit well together,2020-11-22 05:28:32,38374,True
183,183,21470,Some notes felt more important than others.,52,likert,html-keyboard-response,157,425837,0.0-157.0,0 3 4 5 7,3,"[0, 5, 8, 9, 10]",4,3 8 13 11 3 12 11 3 13 15 12 11,171,somewhat agree,4,SSSQ0003,38374,2,2020-11-22 08:17:58.187000+00:00,,2,19,in-ear earphones,9-12,Other (please specify below):,SONA for course credit,Chinese,Female,2-3,Not sure,"none, intuition",if certain notes repeat for many times,5.0,2-3,"Yes, but not so well",piano,Strongly Agree,Agree,if the musical notes fit well together,2020-11-22 05:28:32,38374,True
