,subject,set,understood task,response,button_bias_Z,rt set,rt shifted,rt swapped,rt neither,rt shifted-swapped,rt shifted:swapped,length,# shifted,# swapped,# neither,# 1st button,# 2nd button,# neither button,# 1st button (task),# 2nd button (task),# neither button (task),# button presses (task),# trials,# button presses,# no_neither_trials,rate shifted,rate swapped,rate neither,rate pressed 1st,rate pressed 2nd,rate pressed neither,rate pressed 1st (task),rate pressed 2nd (task),rate pressed neither (task),rate_NN_shifted,rate_NN_swapped,rate shifted - rate swapped,rate shifted - rate swapped (NN),Unnamed: 0,subject_age,Did this strategy change throughout the task?,How did you listen to the task?,"If you have had musical training, how old were you during this period (i.e., age-range)?",What is your first language?,Did you notice any change in the music? Elaborate,How did you arrive at this experiment?,What is your first language (if other)?,"Did you notice any particular changes in the music? In other words, did you base your discriminations on specific features of the melodies?",subject_gender,How did your strategy change throughout the task?,Would you consider yourself a musical person? (0-10),How many years of formal musical training do you have?,Do you play any instruments (with or without formal training)?,Which instruments do you play (if any)?,I understood the instructions of the task,I found the task difficult,What general strategy (if any) did you use to judge the similarity across the melodies?,RecordedDate,sona
0,S1C0804,chromatic,True,BBBABBBBBBBBABBBABBABBBBBBBABBBABBBABAABBBAABBBBBBBBAAABBBBBABBBBBBBBABBBABBBBABB,0.0,1218.1000001430511,1040.9000000953674,1167.0,1581.3499999046326,-126.09999990463257,0.8919451586078555,8.0,19,16,24.0,7,28,24.0,18,63,38.0,119.0,59.0,59.0,35.0,0.3220338983050847,0.2711864406779661,0.4067796610169492,0.11864406779661017,0.4745762711864407,0.4067796610169492,0.15126050420168066,0.5294117647058824,0.31932773109243695,0.5428571428571428,0.45714285714285713,0.05084745762711862,0.08571428571428569,2,20.0,No,Earphones in-ear (not sure of the model),11-14,English,"Key changes, single note changes in the middle, etc.",SONA for course credit,,Yes,Female,,7,4,"Yes, I do alright","Piano, Alto Saxophone, Tenor Saxophone",Strongly Agree,Neither Agree nor Disagree,"I closed my eyes, and tried to move my finger along with the melody",2021-09-04 18:31:09,41436
1,S1C0804,diatonic,True,BBBABBBBBBBBABBBABBABBBBBBBABBBABBBABAABBBAABBBBBBBBAAABBBBBABBBBBBBBABBBABBBBABB,0.0,1305.4500000476837,1250.4000000953674,1274.75,1432.2000000476837,-24.34999990463257,0.9808982154111531,8.0,24,22,14.0,11,35,14.0,18,63,38.0,119.0,60.0,60.0,46.0,0.4,0.36666666666666664,0.23333333333333334,0.18333333333333332,0.5833333333333334,0.23333333333333334,0.15126050420168066,0.5294117647058824,0.31932773109243695,0.5217391304347826,0.4782608695652174,0.03333333333333338,0.04347826086956519,2,20.0,No,Earphones in-ear (not sure of the model),11-14,English,"Key changes, single note changes in the middle, etc.",SONA for course credit,,Yes,Female,,7,4,"Yes, I do alright","Piano, Alto Saxophone, Tenor Saxophone",Strongly Agree,Neither Agree nor Disagree,"I closed my eyes, and tried to move my finger along with the melody",2021-09-04 18:31:09,41436
2,S1C0805,chromatic,True,BABBBBABABBAAABABBBBBABBBBBBAABAABAABBBBABABBBBBBBBABBABBAABBBBBBBAABABABBBBBBBBABBAABABABABABABAABBABABABBBBBBAABABBBB,1.4228707485732337,1949.2000000029802,3056.85000000149,1759.6000000014901,0.0,1297.25,1.7372414185035812,8.0,22,37,0.0,21,38,0.0,40,79,0.0,119.0,59.0,59.0,59.0,0.3728813559322034,0.6271186440677966,0.0,0.3559322033898305,0.6440677966101694,0.0,0.33613445378151263,0.6638655462184874,0.0,0.3728813559322034,0.6271186440677966,-0.2542372881355932,-0.2542372881355932,3,21.0,No,over-the-ear head phones,11-14,Spanish,some notes were different,SONA for course credit,,Yes,Female,,7,3,"Yes, I do alright",piano,Agree,Neither Agree nor Disagree,quantity of different notes,2021-09-05 20:34:10,40433
3,S1C0805,diatonic,True,BABBBBABABBAAABABBBBBABBBBBBAABAABAABBBBABABBBBBBBBABBABBAABBBBBBBAABABABBBBBBBBABBAABABABABABABAABBABABABBBBBBAABABBBB,1.4228707485732337,2093.5499999970198,2050.0,2109.7999999970198,0.0,-59.79999999701977,0.9716560811465048,8.0,31,29,0.0,19,41,0.0,40,79,0.0,119.0,60.0,60.0,60.0,0.5166666666666667,0.48333333333333334,0.0,0.31666666666666665,0.6833333333333333,0.0,0.33613445378151263,0.6638655462184874,0.0,0.5166666666666667,0.48333333333333334,0.03333333333333338,0.03333333333333338,3,21.0,No,over-the-ear head phones,11-14,Spanish,some notes were different,SONA for course credit,,Yes,Female,,7,3,"Yes, I do alright",piano,Agree,Neither Agree nor Disagree,quantity of different notes,2021-09-05 20:34:10,40433
4,S1C0806,chromatic,True,BBBBBABAABABBAABABABBAAABBBAAABABBAABBBBABBABABBBAAAABABBAABAABABBBBBABBBBAAABBBBAABBABBBBBAABBBBAABBAABBBABABABAB,0.5348509865479446,1150.25,1054.2499999403954,948.5,4497.300000071526,105.74999994039536,1.1114918291411653,8.0,24,31,5.0,18,37,5.0,47,67,6.0,120.0,60.0,60.0,55.0,0.4,0.5166666666666667,0.08333333333333333,0.3,0.6166666666666667,0.08333333333333333,0.39166666666666666,0.5583333333333333,0.05,0.43636363636363634,0.5636363636363636,-0.1166666666666667,-0.12727272727272726,4,19.0,No,"Yes, I used Apple Air Pod Pros with the noise-cancelling feature.",10-15,English,,SONA for course credit,,No,Male,,4,5,"Yes, but not so well",Cello,Strongly Agree,Neither Agree nor Disagree,"Because I knew that there were only two options to choose from and that I would have a harder time differentiating between the test sound and the second option rather than the first, I would listen carefully to the test sound and the first option. If there were no differences, I would automatically know it is the second option. ",2021-09-06 00:20:36,41412
5,S1C0806,diatonic,True,BBBBBABAABABBAABABABBAAABBBAAABABBAABBBBABBABABBBAAAABABBAABAABABBBBBABBBBAAABBBBAABBABBBBBAABBBBAABBAABBBABABABAB,0.5348509865479446,757.75,732.5,1011.8000000119209,2500.6999999284744,-279.30000001192093,0.7239573038064536,8.0,43,16,1.0,29,30,1.0,47,67,6.0,120.0,60.0,60.0,59.0,0.7166666666666667,0.26666666666666666,0.016666666666666666,0.48333333333333334,0.5,0.016666666666666666,0.39166666666666666,0.5583333333333333,0.05,0.7288135593220338,0.2711864406779661,0.45,0.45762711864406774,4,19.0,No,"Yes, I used Apple Air Pod Pros with the noise-cancelling feature.",10-15,English,,SONA for course credit,,No,Male,,4,5,"Yes, but not so well",Cello,Strongly Agree,Neither Agree nor Disagree,"Because I knew that there were only two options to choose from and that I would have a harder time differentiating between the test sound and the second option rather than the first, I would listen carefully to the test sound and the first option. If there were no differences, I would automatically know it is the second option. ",2021-09-06 00:20:36,41412
6,S1C0807,chromatic,True,BBBAABABBBBAABBBBBABBBBAAABABAAAAABBBBABBABBAABBBABABABABBBAABBAABAAABABBBAAAAABBBBABBBBABBBAABBBAABAABABABAABABBBBB,-0.11534975161338476,558.1999999880791,558.1999999880791,471.69999998807907,2160.600000023842,86.5,1.1833792664875684,8.0,19,37,3.0,22,34,3.0,49,67,3.0,119.0,59.0,59.0,56.0,0.3220338983050847,0.6271186440677966,0.05084745762711865,0.3728813559322034,0.576271186440678,0.05084745762711865,0.4117647058823529,0.5630252100840336,0.025210084033613446,0.3392857142857143,0.6607142857142857,-0.3050847457627119,-0.3214285714285714,5,19.0,No,airpod pros ,since 7,English,noticing if one note in the options was not in the same key ,SONA for course credit,,Yes,Female,,8,8,"Yes, I do alright","piano, guitar",Strongly Agree,Neither Agree nor Disagree,if the melodies were in the same key and if the notes ascending or descending ,2021-09-06 13:38:49,41419
7,S1C0807,diatonic,True,BBBAABABBBBAABBBBBABBBBAAABABAAAAABBBBABBABBAABBBABABABABBBAABBAABAAABABBBAAAAABBBBABBBBABBBAABBBAABAABABABAABABBBBB,-0.11534975161338476,619.8999999761581,696.0999999642372,532.3000000119209,0.0,163.79999995231628,1.307721209747601,8.0,35,25,0.0,27,33,0.0,49,67,3.0,119.0,60.0,60.0,60.0,0.5833333333333334,0.4166666666666667,0.0,0.45,0.55,0.0,0.4117647058823529,0.5630252100840336,0.025210084033613446,0.5833333333333334,0.4166666666666667,0.16666666666666669,0.16666666666666669,5,19.0,No,airpod pros ,since 7,English,noticing if one note in the options was not in the same key ,SONA for course credit,,Yes,Female,,8,8,"Yes, I do alright","piano, guitar",Strongly Agree,Neither Agree nor Disagree,if the melodies were in the same key and if the notes ascending or descending ,2021-09-06 13:38:49,41419
8,S1C0808,chromatic,True,BBBABABBBBABBABBBBBABBABBBABBABABBBBBBB,1.919955089295106,2186.0,4642.499999970198,3008.9500000178814,1955.800000011921,1633.5499999523163,1.5428970238596882,8.0,6,12,42.0,4,14,42.0,9,30,81.0,120.0,60.0,60.0,18.0,0.1,0.2,0.7,0.06666666666666667,0.23333333333333334,0.7,0.075,0.25,0.675,0.3333333333333333,0.6666666666666666,-0.1,-0.3333333333333333,6,21.0,No,Over-the-ear bluetooth beats headphones,12,English,"It seemed like melody sometimes changed, skipped or added notes",SONA for course credit,,Yes,Male,,0,1,No,,Strongly Agree,Strongly Agree,I did my best to pick up on any of the differences,2021-09-19 07:13:57,38883
9,S1C0808,diatonic,True,BBBABABBBBABBABBBBBABBABBBABBABABBBBBBB,1.919955089295106,2184.6500000059605,3487.399999976158,2584.149999976158,2080.399999976158,903.25,1.3495346632387182,8.0,9,12,39.0,5,16,39.0,9,30,81.0,120.0,60.0,60.0,21.0,0.15,0.2,0.65,0.08333333333333333,0.26666666666666666,0.65,0.075,0.25,0.675,0.42857142857142855,0.5714285714285714,-0.05000000000000002,-0.14285714285714285,6,21.0,No,Over-the-ear bluetooth beats headphones,12,English,"It seemed like melody sometimes changed, skipped or added notes",SONA for course credit,,Yes,Male,,0,1,No,,Strongly Agree,Strongly Agree,I did my best to pick up on any of the differences,2021-09-19 07:13:57,38883
10,S1C0809,chromatic,True,BBAAAABAABBBAABBAABBBAAABABABBBBABBBAABBAABBBBBBBABBBABAABABBBAABBAAAABBBBBBABABAAAABBBBBBBABBBBAAAB,-1.325890979043571,902.1499999985099,1036.4499999955297,745.2000000029802,916.5,291.2499999925494,1.390834675243404,8.0,30,21,9.0,19,32,9.0,41,59,20.0,120.0,60.0,60.0,51.0,0.5,0.35,0.15,0.31666666666666665,0.5333333333333333,0.15,0.3416666666666667,0.49166666666666664,0.16666666666666666,0.5882352941176471,0.4117647058823529,0.15000000000000002,0.17647058823529416,7,19.0,Yes,"In-ear, AirPods Pro",8-18,Other (please specify below):,I listened closely to the melody and tried to identify a difference in the melodies based on the notes being played.,SONA for course credit,Russian,Yes,Female,"Throughout the experiment, I came to realize that Option 1 and Option 2 would sometimes have the same amount of notes changed from the original test melody but they were different pitches. Thus, I then focused on which one sounded most different melodically.",8,9+,"Yes, I am near professional",Piano,Strongly Agree,Neither Agree nor Disagree,I tried to memorize the test melody in my head and hum it along with each option to compare ,2021-09-06 15:44:26,41416
11,S1C0809,diatonic,True,BBAAAABAABBBAABBAABBBAAABABABBBBABBBAABBAABBBBBBBABBBABAABABBBAABBAAAABBBBBBABABAAAABBBBBBBABBBBAAAB,-1.325890979043571,920.6000000014901,595.6500000059605,922.0,1964.5999999940395,-326.34999999403954,0.646041214757007,8.0,32,17,11.0,22,27,11.0,41,59,20.0,120.0,60.0,60.0,49.0,0.5333333333333333,0.2833333333333333,0.18333333333333332,0.36666666666666664,0.45,0.18333333333333332,0.3416666666666667,0.49166666666666664,0.16666666666666666,0.6530612244897959,0.3469387755102041,0.25,0.3061224489795918,7,19.0,Yes,"In-ear, AirPods Pro",8-18,Other (please specify below):,I listened closely to the melody and tried to identify a difference in the melodies based on the notes being played.,SONA for course credit,Russian,Yes,Female,"Throughout the experiment, I came to realize that Option 1 and Option 2 would sometimes have the same amount of notes changed from the original test melody but they were different pitches. Thus, I then focused on which one sounded most different melodically.",8,9+,"Yes, I am near professional",Piano,Strongly Agree,Neither Agree nor Disagree,I tried to memorize the test melody in my head and hum it along with each option to compare ,2021-09-06 15:44:26,41416
12,S1C0810,chromatic,True,BBABBABBBAABBABBAABAABAAABBBBBBBABBAABABAABBBBBBBBBABABBBBBBABAABABBABABABBABAABBABBABBAABABBBBABABBAABBBABBABABBBBABB,1.865194881458687,513.25,504.25,499.25,3655.9999998807907,5.0,1.0100150225338007,8.0,14,44,2.0,18,40,2.0,43,75,2.0,120.0,60.0,60.0,58.0,0.23333333333333334,0.7333333333333333,0.03333333333333333,0.3,0.6666666666666666,0.03333333333333333,0.35833333333333334,0.625,0.016666666666666666,0.2413793103448276,0.7586206896551724,-0.49999999999999994,-0.5172413793103448,8,19.0,No,SPEAKER,,Chinese (Mandarin),one part of music was changed,SONA for course credit,,Yes,Male,,4,0,No,,Agree,Agree,remember.,2021-09-15 11:40:48,41444
13,S1C0810,diatonic,True,BBABBABBBAABBABBAABAABAAABBBBBBBABBAABABAABBBBBBBBBABABBBBBBABAABABBABABABBABAABBABBABBAABABBBBABABBAABBBABBABABBBBABB,1.865194881458687,743.2999999523163,965.5999999046326,728.0999999046326,0.0,237.5,1.32619145726014,8.0,19,41,0.0,25,35,0.0,43,75,2.0,120.0,60.0,60.0,60.0,0.31666666666666665,0.6833333333333333,0.0,0.4166666666666667,0.5833333333333334,0.0,0.35833333333333334,0.625,0.016666666666666666,0.31666666666666665,0.6833333333333333,-0.3666666666666667,-0.3666666666666667,8,19.0,No,SPEAKER,,Chinese (Mandarin),one part of music was changed,SONA for course credit,,Yes,Male,,4,0,No,,Agree,Agree,remember.,2021-09-15 11:40:48,41444
14,S1C0811,chromatic,True,BABABBABABBBBAABBBAABBBBBBBABABBBBABBABBBAAABBAABBABABBBBBBABBBBBBBBBAABBAABBBAABBBBBAABAAAAABBBABAABBABABBABBA,-0.03543130648815403,1057.7000000476837,1164.7000000476837,1015.4000000953674,1567.3000000715256,149.29999995231628,1.147035650914215,8.0,21,33,6.0,17,37,6.0,40,71,9.0,120.0,60.0,60.0,54.0,0.35,0.55,0.1,0.2833333333333333,0.6166666666666667,0.1,0.3333333333333333,0.5916666666666667,0.075,0.3888888888888889,0.6111111111111112,-0.20000000000000007,-0.22222222222222227,9,21.0,No,"Yes, in-ear",6-10years old,Chinese (Mandarin),Sometimes it is a switch of different keys; sometimes it is down / up a key,SONA for course credit,,Yes,Female,,7,4,"Yes, I do alright",Piano,Strongly Agree,Disagree,the tones,2021-09-15 11:57:04,41788
15,S1C0811,diatonic,True,BABABBABABBBBAABBBAABBBBBBBABABBBBABBABBBAAABBAABBABABBBBBBABBBBBBBBBAABBAABBBAABBBBBAABAAAAABBBABAABBABABBABBA,-0.03543130648815403,992.25,782.1999999284744,1648.6500000357628,873.5999999046326,-866.4500001072884,0.47444879138174073,8.0,43,14,3.0,23,34,3.0,40,71,9.0,120.0,60.0,60.0,57.0,0.7166666666666667,0.23333333333333334,0.05,0.38333333333333336,0.5666666666666667,0.05,0.3333333333333333,0.5916666666666667,0.075,0.7543859649122807,0.24561403508771928,0.48333333333333334,0.5087719298245614,9,21.0,No,"Yes, in-ear",6-10years old,Chinese (Mandarin),Sometimes it is a switch of different keys; sometimes it is down / up a key,SONA for course credit,,Yes,Female,,7,4,"Yes, I do alright",Piano,Strongly Agree,Disagree,the tones,2021-09-15 11:57:04,41788
16,S1C0812,chromatic,True,BBBABABBABABBABBAAAAABBAAAABBBABBAAAABBABBAABAABBBBABBAABAAAABABBBAAAAABABABAABAAAABAAAAABBAABA,0.028617778721834224,1353.199999988079,1046.75,1191.800000011921,2103.7000000476837,-145.05000001192093,0.878293337799572,8.0,8,36,13.0,26,18,13.0,53,42,22.0,117.0,57.0,57.0,44.0,0.14035087719298245,0.631578947368421,0.22807017543859648,0.45614035087719296,0.3157894736842105,0.22807017543859648,0.452991452991453,0.358974358974359,0.18803418803418803,0.18181818181818182,0.8181818181818182,-0.49122807017543857,-0.6363636363636365,10,18.0,No,In-ear headphone,16,Chinese (Mandarin),The rhythm.,SONA for course credit,,Yes,Male,,7,2,No,,Agree,Neither Agree nor Disagree,Judge the ups and downs of musical rhythm. ,2021-09-15 12:01:42,41505
17,S1C0812,diatonic,True,BBBABABBABABBABBAAAAABBAAAABBBABBAAAABBABBAABAABBBBABBAABAAAABABBBAAAAABABABAABAAAABAAAAABBAABA,0.028617778721834224,1262.25,1571.25,1098.8999999761581,1740.7999999523163,472.35000002384186,1.4298389298699519,8.0,20,31,9.0,27,24,9.0,53,42,22.0,117.0,60.0,60.0,51.0,0.3333333333333333,0.5166666666666667,0.15,0.45,0.4,0.15,0.452991452991453,0.358974358974359,0.18803418803418803,0.39215686274509803,0.6078431372549019,-0.1833333333333334,-0.21568627450980388,10,18.0,No,In-ear headphone,16,Chinese (Mandarin),The rhythm.,SONA for course credit,,Yes,Male,,7,2,No,,Agree,Neither Agree nor Disagree,Judge the ups and downs of musical rhythm. ,2021-09-15 12:01:42,41505
18,S1C0813,chromatic,True,BAABBBABBBBABBBBBBBBBABAAAAAABABABBBABBABBBBABABBBABBABBBABBBBBBBBBBBBBBBBBA,-0.40410006716362357,1064.0,777.0999999996275,1057.2000000011176,1647.2000000001863,-280.1000000014901,0.7350548618982273,8.0,17,21,20.0,10,28,20.0,21,55,42.0,118.0,58.0,58.0,38.0,0.29310344827586204,0.3620689655172414,0.3448275862068966,0.1724137931034483,0.4827586206896552,0.3448275862068966,0.17796610169491525,0.4661016949152542,0.3559322033898305,0.4473684210526316,0.5526315789473685,-0.06896551724137934,-0.10526315789473689,11,19.0,No,in the ear,,English,high and low pitches ,SONA for course credit,,Yes,Female,,0,0,No,,Strongly Agree,Strongly Disagree,"focus, finger taps",2021-09-15 12:09:49,41857
19,S1C0813,diatonic,True,BAABBBABBBBABBBBBBBBBABAAAAAABABABBBABBABBBBABABBBABBABBBABBBBBBBBBBBBBBBBBA,-0.40410006716362357,1360.3999999994412,1143.1000000005588,1362.7499999990687,1624.5499999998137,-219.64999999850988,0.8388185654018272,8.0,26,12,22.0,11,27,22.0,21,55,42.0,118.0,60.0,60.0,38.0,0.43333333333333335,0.2,0.36666666666666664,0.18333333333333332,0.45,0.36666666666666664,0.17796610169491525,0.4661016949152542,0.3559322033898305,0.6842105263157895,0.3157894736842105,0.23333333333333334,0.368421052631579,11,19.0,No,in the ear,,English,high and low pitches ,SONA for course credit,,Yes,Female,,0,0,No,,Strongly Agree,Strongly Disagree,"focus, finger taps",2021-09-15 12:09:49,41857
20,S1C0814,chromatic,True,BABBBBBBBAAAABABABABBBBABBBBBBBABBABBABABABBAAABBABBBBBAABBBBBBBAAABABABBBBBBBBBBA,-0.13167486954376256,1093.9000000953674,702.2999999523163,477.4999998807907,1636.9499999284744,224.80000007152557,1.4707853405814608,8.0,13,26,20.0,8,31,20.0,26,56,37.0,119.0,59.0,59.0,39.0,0.22033898305084745,0.4406779661016949,0.3389830508474576,0.13559322033898305,0.5254237288135594,0.3389830508474576,0.2184873949579832,0.47058823529411764,0.31092436974789917,0.3333333333333333,0.6666666666666666,-0.22033898305084745,-0.3333333333333333,12,19.0,Yes,one right side air pod,11-18,Chinese (Mandarin),the rythmn,SONA for course credit,,Yes,Female,"block 5, the pieces are becoming very similar",7,7,"Yes, I do alright",piano,Strongly Agree,Disagree,,2021-09-15 12:09:24,41442
21,S1C0814,diatonic,True,BABBBBBBBAAAABABABABBBBABBBBBBBABBABBABABABBAAABBABBBBBAABBBBBBBAAABABABBBBBBBBBBA,-0.13167486954376256,955.9999998807907,844.3999998569489,526.4500000476837,1889.5999999046326,317.94999980926514,1.603950992079906,8.0,29,14,17.0,18,25,17.0,26,56,37.0,119.0,60.0,60.0,43.0,0.48333333333333334,0.23333333333333334,0.2833333333333333,0.3,0.4166666666666667,0.2833333333333333,0.2184873949579832,0.47058823529411764,0.31092436974789917,0.6744186046511628,0.32558139534883723,0.25,0.34883720930232553,12,19.0,Yes,one right side air pod,11-18,Chinese (Mandarin),the rythmn,SONA for course credit,,Yes,Female,"block 5, the pieces are becoming very similar",7,7,"Yes, I do alright",piano,Strongly Agree,Disagree,,2021-09-15 12:09:24,41442
22,S1C0816,chromatic,True,ABABAAABBBBBBABBBBAABBBABBBBABBBBABBABBBBABBAABAAABBBABBBBABBAABBBABBBBAAAABAAAAAAAABABBBBABAAAAAABBBBABABBBBAABBBBABAB,-1.2635524254306698,488.59999990463257,908.4499999880791,408.60000002384186,0.0,499.8499999642372,2.223323543649219,8.0,18,41,0.0,24,35,0.0,49,70,0.0,119.0,59.0,59.0,59.0,0.3050847457627119,0.6949152542372882,0.0,0.4067796610169492,0.5932203389830508,0.0,0.4117647058823529,0.5882352941176471,0.0,0.3050847457627119,0.6949152542372882,-0.3898305084745763,-0.3898305084745763,13,19.0,Yes,Apple earbuds that came with my iPhone 6S in 2016,7-18,English,I noticed the two main variations were changing the order of some notes or using a flat or sharp of a note from the test music,SONA for course credit,,Yes,Female,"Around Block 3, I started choosing the options that had a greater number of variations even though the general sound of the other option was very different due to a flat or sharp. In Block 5, I changed back to selecting the options that had more sharps/flats.",7,9+,"Yes, I do alright",Guitar and piano,Strongly Agree,Disagree,I looked for as few variations as possible,2021-09-15 19:27:42,41639
23,S1C0816,diatonic,True,ABABAAABBBBBBABBBBAABBBABBBBABBBBABBABBBBABBAABAAABBBABBBBABBAABBBABBBBAAAABAAAAAAAABABBBBABAAAAAABBBBABABBBBAABBBBABAB,-1.2635524254306698,471.64999997615814,511.10000002384186,401.2000000476837,0.0,109.89999997615814,1.2739282152619547,8.0,23,37,0.0,25,35,0.0,49,70,0.0,119.0,60.0,60.0,60.0,0.38333333333333336,0.6166666666666667,0.0,0.4166666666666667,0.5833333333333334,0.0,0.4117647058823529,0.5882352941176471,0.0,0.38333333333333336,0.6166666666666667,-0.23333333333333334,-0.23333333333333334,13,19.0,Yes,Apple earbuds that came with my iPhone 6S in 2016,7-18,English,I noticed the two main variations were changing the order of some notes or using a flat or sharp of a note from the test music,SONA for course credit,,Yes,Female,"Around Block 3, I started choosing the options that had a greater number of variations even though the general sound of the other option was very different due to a flat or sharp. In Block 5, I changed back to selecting the options that had more sharps/flats.",7,9+,"Yes, I do alright",Guitar and piano,Strongly Agree,Disagree,I looked for as few variations as possible,2021-09-15 19:27:42,41639
24,S1C0817,chromatic,True,ABBAABBABBABABBBBBBABBBBBABBBAAABBAABBBBABBBABABBABBABABABBABABBBABABABBA,2.1925032970939773,1216.1999999955297,1037.1000000014901,1188.2000000029802,1404.0,-151.10000000149012,0.8728328564205428,8.0,16,17,25.0,12,21,25.0,26,47,45.0,118.0,58.0,58.0,33.0,0.27586206896551724,0.29310344827586204,0.43103448275862066,0.20689655172413793,0.3620689655172414,0.43103448275862066,0.22033898305084745,0.3983050847457627,0.3813559322033898,0.48484848484848486,0.5151515151515151,-0.017241379310344807,-0.030303030303030276,14,19.0,Yes,"Apple Airpod Pro, in-ear, with noise cancellation",10-14,English,"I would try to find parts of the melody that was ""identifiable""",SONA for course credit,,Yes,Female,"It differed, I tried to listen for certain points that would help me identify the melody or I would listen for odd notes out",4,4,No,,Strongly Agree,Agree,Different notes and ups and down of them,2021-09-15 18:21:41,41613
25,S1C0817,diatonic,True,ABBAABBABBABABBBBBBABBBBBABBBAAABBAABBBBABBBABABBABBABABABBABABBBABABABBA,2.1925032970939773,1115.2000000029802,779.4000000059605,1126.7000000029802,1651.5,-347.29999999701977,0.6917546818176079,8.0,25,15,20.0,14,26,20.0,26,47,45.0,118.0,60.0,60.0,40.0,0.4166666666666667,0.25,0.3333333333333333,0.23333333333333334,0.43333333333333335,0.3333333333333333,0.22033898305084745,0.3983050847457627,0.3813559322033898,0.625,0.375,0.16666666666666669,0.25,14,19.0,Yes,"Apple Airpod Pro, in-ear, with noise cancellation",10-14,English,"I would try to find parts of the melody that was ""identifiable""",SONA for course credit,,Yes,Female,"It differed, I tried to listen for certain points that would help me identify the melody or I would listen for odd notes out",4,4,No,,Strongly Agree,Agree,Different notes and ups and down of them,2021-09-15 18:21:41,41613
26,S1C0819,chromatic,True,BABBABABBBBBBAAAAAABBBAABABBABBBAABBBBBABAABABAABABBABABAABBABBBABBABBABABABBBBAAAABBABABAAABBBBBABAAABBAABBBAABAB,1.1195371484066197,645.0499999998137,750.0,623.7000000011176,1029.4000000003725,126.29999999888241,1.2025012024990478,8.0,15,42,1.0,26,31,1.0,50,64,4.0,118.0,58.0,58.0,57.0,0.25862068965517243,0.7241379310344828,0.017241379310344827,0.4482758620689655,0.5344827586206896,0.017241379310344827,0.423728813559322,0.5423728813559322,0.03389830508474576,0.2631578947368421,0.7368421052631579,-0.46551724137931033,-0.47368421052631576,15,20.0,No,Apple earphones (in-ear) ,11-13,Other (please specify below):,,SONA for course credit,Arabic,Yes,Female,,4,2,"Yes, but not so well","Piano, guitar",Agree,Agree,,2021-09-15 19:30:23,41819
27,S1C0819,diatonic,True,BABBABABBBBBBAAAAAABBBAABABBABBBAABBBBBABAABABAABABBABABAABBABBBABBABBABABABBBBAAAABBABABAAABBBBBABAAABBAABBBAABAB,1.1195371484066197,895.7999999998137,760.0,927.6500000003725,7067.5,-167.65000000037253,0.8192745108604482,8.0,29,28,3.0,24,33,3.0,50,64,4.0,118.0,60.0,60.0,57.0,0.48333333333333334,0.4666666666666667,0.05,0.4,0.55,0.05,0.423728813559322,0.5423728813559322,0.03389830508474576,0.5087719298245614,0.49122807017543857,0.016666666666666663,0.01754385964912286,15,20.0,No,Apple earphones (in-ear) ,11-13,Other (please specify below):,,SONA for course credit,Arabic,Yes,Female,,4,2,"Yes, but not so well","Piano, guitar",Agree,Agree,,2021-09-15 19:30:23,41819
28,S1C0820,chromatic,True,ABABBBBBAABBABBBBBBABBAABAAABBBBABBAABAABBBABBABBAABABBBBABAABBBBABAAABBBB,0.0471164850122203,2148.85000000149,1700.0,1439.5,3482.3999999910593,260.5,1.1809656130600903,8.0,15,26,17.0,13,28,17.0,28,46,44.0,118.0,58.0,58.0,41.0,0.25862068965517243,0.4482758620689655,0.29310344827586204,0.22413793103448276,0.4827586206896552,0.29310344827586204,0.23728813559322035,0.3898305084745763,0.3728813559322034,0.36585365853658536,0.6341463414634146,-0.1896551724137931,-0.2682926829268293,16,18.0,No,in-ear,16,Chinese (Mandarin),,SONA for course credit,,No,Female,,1,1,"Yes, but not so well",violin,Agree,Neither Agree nor Disagree,,2021-09-18 18:07:43,41508
29,S1C0820,diatonic,True,ABABBBBBAABBABBBBBBABBAABAAABBBBABBAABAABBBABBABBAABABBBBABAABBBBABAAABBBB,0.0471164850122203,1845.6500000059605,1393.5,1187.3999999985099,2849.0999999940395,206.10000000149012,1.1735725113708513,8.0,17,16,27.0,15,18,27.0,28,46,44.0,118.0,60.0,60.0,33.0,0.2833333333333333,0.26666666666666666,0.45,0.25,0.3,0.45,0.23728813559322035,0.3898305084745763,0.3728813559322034,0.5151515151515151,0.48484848484848486,0.016666666666666663,0.030303030303030276,16,18.0,No,in-ear,16,Chinese (Mandarin),,SONA for course credit,,No,Female,,1,1,"Yes, but not so well",violin,Agree,Neither Agree nor Disagree,,2021-09-18 18:07:43,41508
30,S1C0822,chromatic,False,BABBAABAABABABBBBBAABABABAABBABABBBBBBAAAABABBABAAABBBAAABAABABABBAABABBABBBBAAAABBABAABBABAABBABABABABAABBBABAABAABBA,2.234007104850973,1017.3000000119209,725.6500000059605,1172.9500000178814,1985.699999988079,-447.30000001192093,0.6186538215566717,8.0,28,30,1.0,27,31,1.0,57,61,1.0,119.0,59.0,59.0,58.0,0.4745762711864407,0.5084745762711864,0.01694915254237288,0.4576271186440678,0.5254237288135594,0.01694915254237288,0.4789915966386555,0.5126050420168067,0.008403361344537815,0.4827586206896552,0.5172413793103449,-0.03389830508474573,-0.03448275862068967,17,21.0,No,headphones,,English,,SONA for course credit,,No,Female,,2,0,No,,Strongly Disagree,Strongly Disagree,,2021-09-16 19:11:28,41449
31,S1C0822,diatonic,False,BABBAABAABABABBBBBAABABABAABBABABBBBBBAAAABABBABAAABBBAAABAABABABBAABABBABBBBAAAABBABAABBABAABBABABABABAABBBABAABAABBA,2.234007104850973,827.5500000119209,755.1999999880791,884.3500000238419,0.0,-129.1500000357628,0.8539605359503806,8.0,36,24,0.0,30,30,0.0,57,61,1.0,119.0,60.0,60.0,60.0,0.6,0.4,0.0,0.5,0.5,0.0,0.4789915966386555,0.5126050420168067,0.008403361344537815,0.6,0.4,0.19999999999999996,0.19999999999999996,17,21.0,No,headphones,,English,,SONA for course credit,,No,Female,,2,0,No,,Strongly Disagree,Strongly Disagree,,2021-09-16 19:11:28,41449
32,S1C0823,chromatic,True,ABBBBBBBABBABBBABBBABBBBBABAABABAABAABBABABABBBAAABABABBABBAAABBBBBABBABAABABBAABAABAAAABAABBABBAAAAAABBAABABABABABBA,1.4657971121997682,1076.8999999910593,972.4499999955297,1092.7000000029802,2746.2999999970198,-120.25000000745058,0.8899514962870664,8.0,22,36,1.0,30,28,1.0,54,63,2.0,119.0,59.0,59.0,58.0,0.3728813559322034,0.6101694915254238,0.01694915254237288,0.5084745762711864,0.4745762711864407,0.01694915254237288,0.453781512605042,0.5294117647058824,0.01680672268907563,0.3793103448275862,0.6206896551724138,-0.23728813559322037,-0.24137931034482762,18,19.0,No,over-the-ear headphones,9-12,English,I listened for the lowest and highest notes,SONA for course credit,,Yes,Female,,2,3,"Yes, but not so well",guitar,Strongly Agree,Agree,listening for the most distinct notes and their placement in the sequence,2021-09-16 21:14:46,39889
33,S1C0823,diatonic,True,ABBBBBBBABBABBBABBBABBBBBABAABABAABAABBABABABBBAAABABABBABBAAABBBBBABBABAABABBAABAABAAAABAABBABBAAAAAABBAABABABABABBA,1.4657971121997682,739.3999999985099,862.7999999970198,633.2000000029802,866.1000000089407,229.59999999403954,1.3626026531790254,8.0,38,21,1.0,24,35,1.0,54,63,2.0,119.0,60.0,60.0,59.0,0.6333333333333333,0.35,0.016666666666666666,0.4,0.5833333333333334,0.016666666666666666,0.453781512605042,0.5294117647058824,0.01680672268907563,0.6440677966101694,0.3559322033898305,0.2833333333333333,0.28813559322033894,18,19.0,No,over-the-ear headphones,9-12,English,I listened for the lowest and highest notes,SONA for course credit,,Yes,Female,,2,3,"Yes, but not so well",guitar,Strongly Agree,Agree,listening for the most distinct notes and their placement in the sequence,2021-09-16 21:14:46,39889
34,S1C0824,chromatic,True,BABBABAABBBABBAABBBAABBBBABBABBABBABAABBBBAABBAABBBABBBBABBAABBABBBBBBBBABBAAAAABABABBBBABBBAABBABB,0.4766345847537364,1580.2000000476837,1580.2000000476837,1447.0,3099.5,133.20000004768372,1.092052522493216,8.0,19,27,13.0,17,29,13.0,36,63,20.0,119.0,59.0,59.0,46.0,0.3220338983050847,0.4576271186440678,0.22033898305084745,0.288135593220339,0.4915254237288136,0.22033898305084745,0.3025210084033613,0.5294117647058824,0.16806722689075632,0.41304347826086957,0.5869565217391305,-0.13559322033898308,-0.17391304347826092,19,18.0,Yes,"in ear, air pods",,English,"sometimes added or removed note, sometimes L went deeper sometimes A switch ed two notes",SONA for course credit,,Yes,Female,The strategy sort of evolved block by block,5,0,"Yes, but not so well",ukulele,Strongly Agree,Neither Agree nor Disagree,counted for missing or added beats,2021-09-16 21:45:36,41654
35,S1C0824,diatonic,True,BABBABAABBBABBAABBBAABBBBABBABBABBABAABBBBAABBAABBBABBBBABBAABBABBBBBBBBABBAAAAABABABBBBABBBAABBABB,0.4766345847537364,1600.4000000357628,1721.7999999821186,1333.300000011921,2725.899999976158,388.4999999701977,1.2913822845321563,8.0,26,27,7.0,19,34,7.0,36,63,20.0,119.0,60.0,60.0,53.0,0.43333333333333335,0.45,0.11666666666666667,0.31666666666666665,0.5666666666666667,0.11666666666666667,0.3025210084033613,0.5294117647058824,0.16806722689075632,0.49056603773584906,0.5094339622641509,-0.016666666666666663,-0.018867924528301883,19,18.0,Yes,"in ear, air pods",,English,"sometimes added or removed note, sometimes L went deeper sometimes A switch ed two notes",SONA for course credit,,Yes,Female,The strategy sort of evolved block by block,5,0,"Yes, but not so well",ukulele,Strongly Agree,Neither Agree nor Disagree,counted for missing or added beats,2021-09-16 21:45:36,41654
36,S1C0825,chromatic,True,BABBAAAAABABBBABABBBBABBAABBBABBBBABBBABABABAABBBBAABBAABABBBABAAAABAAABAAAAABBBAAAAAABABAAAABAABABABABBBBABBBABABAABAB,0.829379597463197,649.1000000014901,669.8000000044703,643.0,0.0,26.80000000447035,1.0416796267565636,8.0,33,26,0.0,28,31,0.0,59,60,0.0,119.0,59.0,59.0,59.0,0.559322033898305,0.4406779661016949,0.0,0.4745762711864407,0.5254237288135594,0.0,0.4957983193277311,0.5042016806722689,0.0,0.559322033898305,0.4406779661016949,0.11864406779661013,0.11864406779661013,20,18.0,No,I listened to the task with Apple Airpods (2nd Gen),8-15,English,"As mentioned above, I paid most attention to the specific notes of each melody",SONA for course credit,,Yes,Female,,8,8,"Yes, I do alright","Piano, ukulele",Agree,Disagree,I tried to identify the number of different notes in each melody compared to the test melody or the size of the interval between a different note and its respective note in the test melody,2021-09-17 12:41:56,41488
37,S1C0825,diatonic,True,BABBAAAAABABBBABABBBBABBAABBBABBBBABBBABABABAABBBBAABBAABABBBABAAAABAAABAAAAABBBAAAAAABABAAAABAABABABABBBBABBBABABAABAB,0.829379597463197,697.6000000014901,718.6999999955297,664.5,0.0,54.19999999552965,1.081565086524499,8.0,41,19,0.0,31,29,0.0,59,60,0.0,119.0,60.0,60.0,60.0,0.6833333333333333,0.31666666666666665,0.0,0.5166666666666667,0.48333333333333334,0.0,0.4957983193277311,0.5042016806722689,0.0,0.6833333333333333,0.31666666666666665,0.3666666666666667,0.3666666666666667,20,18.0,No,I listened to the task with Apple Airpods (2nd Gen),8-15,English,"As mentioned above, I paid most attention to the specific notes of each melody",SONA for course credit,,Yes,Female,,8,8,"Yes, I do alright","Piano, ukulele",Agree,Disagree,I tried to identify the number of different notes in each melody compared to the test melody or the size of the interval between a different note and its respective note in the test melody,2021-09-17 12:41:56,41488
38,S1C0826,chromatic,True,ABABBBABBABBBBBBBABBBBBABBBBBBBBABABBABBBBBABAAABBBBBBBABBBBBABABBBBBBABBABBABBB,1.2565583499361193,890.5999999940395,795.9000000059605,424.09999999403954,1218.5499999821186,371.80000001192093,1.8766800283356433,8.0,20,23,16.0,11,32,16.0,19,61,39.0,119.0,59.0,59.0,43.0,0.3389830508474576,0.3898305084745763,0.2711864406779661,0.1864406779661017,0.5423728813559322,0.2711864406779661,0.15966386554621848,0.5126050420168067,0.3277310924369748,0.46511627906976744,0.5348837209302325,-0.050847457627118675,-0.06976744186046507,21,21.0,No,"in-ear, airpod","7-10, 15-17",Chinese (Mandarin),Listen to the notes that is off-key,SONA for course credit,,Yes,Female,,5,5,"Yes, I do alright",drum,Strongly Agree,Agree,,2021-09-17 13:24:28,38027
39,S1C0826,diatonic,True,ABABBBABBABBBBBBBABBBBBABBBBBBBBABABBABBBBBABAAABBBBBBBABBBBBABABBBBBBABBABBABBB,1.2565583499361193,841.4500000029802,456.09999999403954,579.3999999910593,1417.7000000178814,-123.29999999701977,0.7871936486038619,8.0,19,18,23.0,8,29,23.0,19,61,39.0,119.0,60.0,60.0,37.0,0.31666666666666665,0.3,0.38333333333333336,0.13333333333333333,0.48333333333333334,0.38333333333333336,0.15966386554621848,0.5126050420168067,0.3277310924369748,0.5135135135135135,0.4864864864864865,0.016666666666666663,0.027027027027026973,21,21.0,No,"in-ear, airpod","7-10, 15-17",Chinese (Mandarin),Listen to the notes that is off-key,SONA for course credit,,Yes,Female,,5,5,"Yes, I do alright",drum,Strongly Agree,Agree,,2021-09-17 13:24:28,38027
40,S1C0827,chromatic,True,BBBBABABABBABBBBBAABBAABAAABAABABABAAAABBBBBAABBAABBBABAABABAABAABBABAABABBAABAAB,1.2440852167843113,1021.3500000238419,786.9499999880791,930.9000000357628,2096.199999988079,-143.95000004768372,0.845364700781874,8.0,22,20,16.0,25,17,16.0,39,42,37.0,118.0,58.0,58.0,42.0,0.3793103448275862,0.3448275862068966,0.27586206896551724,0.43103448275862066,0.29310344827586204,0.27586206896551724,0.3305084745762712,0.3559322033898305,0.3135593220338983,0.5238095238095238,0.47619047619047616,0.03448275862068961,0.04761904761904767,22,18.0,No,headphones. in ear. Apple airpods,,English,,SONA for course credit,,No,Male,,0,0,No,,Agree,Disagree,I used the different pitches to determine whether or not they sounded the same.,2021-09-17 16:02:56,41706
41,S1C0827,diatonic,True,BBBBABABABBABBBBBAABBAABAAABAABABABAAAABBBBBAABBAABBBABAABABAABAABBABAABABBAABAAB,1.2440852167843113,911.9500000476837,798.0500000119209,884.7000000476837,1882.1000000238419,-86.65000003576279,0.9020571944940743,8.0,24,15,21.0,14,25,21.0,39,42,37.0,118.0,60.0,60.0,39.0,0.4,0.25,0.35,0.23333333333333334,0.4166666666666667,0.35,0.3305084745762712,0.3559322033898305,0.3135593220338983,0.6153846153846154,0.38461538461538464,0.15000000000000002,0.23076923076923078,22,18.0,No,headphones. in ear. Apple airpods,,English,,SONA for course credit,,No,Male,,0,0,No,,Agree,Disagree,I used the different pitches to determine whether or not they sounded the same.,2021-09-17 16:02:56,41706
42,S1C0828,chromatic,True,BBBBAABBABABAAABABBBAABAABABABAAAABABABBBBBBABBBAABBBAAABABAAAAABAAAABAABBAAABAAAABBAABAAABAAAABABABBABAAAABBBABAABB,0.49411378817251894,970.6000001430511,968.0000002384186,915.6999998092651,5439.300000190735,52.30000042915344,1.0571147760620807,8.0,32,25,3.0,35,22,3.0,64,52,4.0,120.0,60.0,60.0,57.0,0.5333333333333333,0.4166666666666667,0.05,0.5833333333333334,0.36666666666666664,0.05,0.5333333333333333,0.43333333333333335,0.03333333333333333,0.5614035087719298,0.43859649122807015,0.11666666666666664,0.12280701754385964,23,18.0,No,"in-ear earbuds, Happy Plugs Earbuds Plus with Mic",5-17 years old,Other (please specify below):,"I mostly chose the melodies that had a different pitch, length, or a noticeable different note.",SONA for course credit,Chinese (Hakka),Yes,Female,,8,9+,"Yes, I do alright",piano and alto saxophone,Strongly Agree,Agree,"I tried to remember the general length and rhythm of each melody, whether the pitch was higher or lower, and if there were any noticeable out of place notes.",2021-09-17 14:25:28,41658
43,S1C0828,diatonic,True,BBBBAABBABABAAABABBBAABAABABABAAAABABABBBBBBABBBAABBBAAABABAAAAABAAAABAABBAAABAAAABBAABAAABAAAABABABBABAAAABBBABAABB,0.49411378817251894,795.5999999046326,622.5,1400.6000003814697,1656.2000002861023,-778.1000003814697,0.44445237743142574,8.0,44,15,1.0,29,30,1.0,64,52,4.0,120.0,60.0,60.0,59.0,0.7333333333333333,0.25,0.016666666666666666,0.48333333333333334,0.5,0.016666666666666666,0.5333333333333333,0.43333333333333335,0.03333333333333333,0.7457627118644068,0.2542372881355932,0.4833333333333333,0.4915254237288136,23,18.0,No,"in-ear earbuds, Happy Plugs Earbuds Plus with Mic",5-17 years old,Other (please specify below):,"I mostly chose the melodies that had a different pitch, length, or a noticeable different note.",SONA for course credit,Chinese (Hakka),Yes,Female,,8,9+,"Yes, I do alright",piano and alto saxophone,Strongly Agree,Agree,"I tried to remember the general length and rhythm of each melody, whether the pitch was higher or lower, and if there were any noticeable out of place notes.",2021-09-17 14:25:28,41658
44,S1C0829,chromatic,True,AAABABABABAAABBAABBAABBABABAAABABABAAAAABBBAAAABABAABABAAABABBABAABAABBABABABABAABBAAABABABAABABBBABABBAABABABBBBABAB,3.5632874868543505,960.5,850.0500000044703,1321.0,0.0,-470.94999999552965,0.6434897804727254,8.0,28,29,0.0,28,29,0.0,64,53,0.0,117.0,57.0,57.0,57.0,0.49122807017543857,0.5087719298245614,0.0,0.49122807017543857,0.5087719298245614,0.0,0.5470085470085471,0.452991452991453,0.0,0.49122807017543857,0.5087719298245614,-0.01754385964912286,-0.01754385964912286,24,20.0,No,in ear ,,English,,SONA for course credit,,No,Female,,3,0,No,,Agree,Strongly Agree,I tried to listen to the first one really closely,2021-09-17 15:18:02,38164
45,S1C0829,diatonic,True,AAABABABABAAABBAABBAABBABABAAABABABAAAAABBBAAAABABAABABAAABABBABAABAABBABABABABAABBAAABABABAABABBBABABBAABABABBBBABAB,3.5632874868543505,1079.7999999970198,626.9500000029802,1115.3999999985099,0.0,-488.44999999552965,0.5620853505503118,8.0,28,32,0.0,36,24,0.0,64,53,0.0,117.0,60.0,60.0,60.0,0.4666666666666667,0.5333333333333333,0.0,0.6,0.4,0.0,0.5470085470085471,0.452991452991453,0.0,0.4666666666666667,0.5333333333333333,-0.06666666666666665,-0.06666666666666665,24,20.0,No,in ear ,,English,,SONA for course credit,,No,Female,,3,0,No,,Agree,Strongly Agree,I tried to listen to the first one really closely,2021-09-17 15:18:02,38164
46,S1C0830,chromatic,True,ABBBBABAABAAABBBBABBAABBBABABAABABBBBBABABBBAAABBBABABBBABBABBBBBBBABABAAABBAAABAABB,0.5752123311063566,889.1000000089407,621.3999999985099,879.25,1487.8999999910593,-257.8500000014901,0.7067386977520727,8.0,16,20,23.0,13,23,23.0,34,50,35.0,119.0,59.0,59.0,36.0,0.2711864406779661,0.3389830508474576,0.3898305084745763,0.22033898305084745,0.3898305084745763,0.3898305084745763,0.2857142857142857,0.42016806722689076,0.29411764705882354,0.4444444444444444,0.5555555555555556,-0.06779661016949151,-0.11111111111111116,25,19.0,No,in-ear,4-10,Chinese (Mandarin),,SONA for course credit,,No,Female,,0,3,"Yes, I do alright",Guzheng,Agree,Strongly Agree,out of tune,2021-09-17 17:35:25,41450
47,S1C0830,diatonic,True,ABBBBABAABAAABBBBABBAABBBABABAABABBBBBABABBBAAABBBABABBBABBABBBBBBBABABAAABBAAABAABB,0.5752123311063566,759.9000000059605,615.5999999940395,701.0499999895692,2058.2999999970198,-85.44999999552965,0.8781114043266514,8.0,40,8,12.0,21,27,12.0,34,50,35.0,119.0,60.0,60.0,48.0,0.6666666666666666,0.13333333333333333,0.2,0.35,0.45,0.2,0.2857142857142857,0.42016806722689076,0.29411764705882354,0.8333333333333334,0.16666666666666666,0.5333333333333333,0.6666666666666667,25,19.0,No,in-ear,4-10,Chinese (Mandarin),,SONA for course credit,,No,Female,,0,3,"Yes, I do alright",Guzheng,Agree,Strongly Agree,out of tune,2021-09-17 17:35:25,41450
48,S1C0831,chromatic,True,BABABBABAAABBBBABBBAABBBBBBABBBAABBBBBBABABBBBAABBBBBABBABABBABBABBABBABAABBBAABBABABAAABBABBAABBBAABA,1.1317968861820709,1591.5999999977648,1564.5999999977648,1430.8499999996275,2372.449999999255,133.74999999813735,1.0934759059287642,8.0,23,24,12.0,11,36,12.0,38,64,17.0,119.0,59.0,59.0,47.0,0.3898305084745763,0.4067796610169492,0.2033898305084746,0.1864406779661017,0.6101694915254238,0.2033898305084746,0.31932773109243695,0.5378151260504201,0.14285714285714285,0.48936170212765956,0.5106382978723404,-0.01694915254237289,-0.021276595744680826,26,20.0,No,"headphones, over the ear, sony",,English,,SONA for course credit,,No,Female,,5,0,"Yes, I do alright",Piano when I was young,Agree,Neither Agree nor Disagree,the whole tone of the sog,2021-09-17 17:45:56,41504
49,S1C0831,diatonic,True,BABABBABAAABBBBABBBAABBBBBBABBBAABBBBBBABABBBBAABBBBBABBABABBABBABBABBABAABBBAABBABABAAABBABBAABBBAABA,1.1317968861820709,1661.75,1554.7000000011176,1911.300000000745,2189.699999999255,-356.59999999962747,0.813425417255539,8.0,42,13,5.0,27,28,5.0,38,64,17.0,119.0,60.0,60.0,55.0,0.7,0.21666666666666667,0.08333333333333333,0.45,0.4666666666666667,0.08333333333333333,0.31932773109243695,0.5378151260504201,0.14285714285714285,0.7636363636363637,0.23636363636363636,0.4833333333333333,0.5272727272727273,26,20.0,No,"headphones, over the ear, sony",,English,,SONA for course credit,,No,Female,,5,0,"Yes, I do alright",Piano when I was young,Agree,Neither Agree nor Disagree,the whole tone of the sog,2021-09-17 17:45:56,41504
50,S1C0835,chromatic,True,BBBBBBBBABBBBABBABBBBBBBABBBAABBAABABABBABAAAABBBABBABABBABBBBBBBBBABBBBBBBBAAABBBBBAAABBBBBAABBBBBABBAAAABBABABBBAB,-0.7974620641506096,930.3999999910593,594.6999999880791,930.3999999910593,2280.800000011921,-335.70000000298023,0.6391874462530028,8.0,21,36,3.0,20,37,3.0,36,80,4.0,120.0,60.0,60.0,57.0,0.35,0.6,0.05,0.3333333333333333,0.6166666666666667,0.05,0.3,0.6666666666666666,0.03333333333333333,0.3684210526315789,0.631578947368421,-0.25,-0.2631578947368421,27,19.0,,in ear,8,English,,SONA for course credit,,No,Male,,1,1,"Yes, but not so well",drums,Strongly Agree,Strongly Agree,tone changes,2021-09-18 12:58:26,41825
51,S1C0835,diatonic,True,BBBBBBBBABBBBABBABBBBBBBABBBAABBAABABABBABAAAABBBABBABABBABBBBBBBBBABBBBBBBBAAABBBBBAAABBBBBAABBBBBABBAAAABBABABBBAB,-0.7974620641506096,546.5,519.7999999821186,560.2500000149012,3527.899999976158,-40.450000032782555,0.9278000891892786,8.0,35,24,1.0,16,43,1.0,36,80,4.0,120.0,60.0,60.0,59.0,0.5833333333333334,0.4,0.016666666666666666,0.26666666666666666,0.7166666666666667,0.016666666666666666,0.3,0.6666666666666666,0.03333333333333333,0.5932203389830508,0.4067796610169492,0.18333333333333335,0.18644067796610164,27,19.0,,in ear,8,English,,SONA for course credit,,No,Male,,1,1,"Yes, but not so well",drums,Strongly Agree,Strongly Agree,tone changes,2021-09-18 12:58:26,41825
52,S1C0836,chromatic,True,BBABAABABAAABBABBAABBABBABABBABBABABAABABBBBABABABBBBAABABABABBAAABABBBBBABABAAABBABBABAABBABBABBABABABAABAB,3.6548545502440297,1821.6999999284744,1769.1000000238419,2103.800000011921,1600.5,-334.69999998807907,0.8409069303231379,8.0,25,28,4.0,23,30,4.0,48,60,9.0,117.0,57.0,57.0,53.0,0.43859649122807015,0.49122807017543857,0.07017543859649122,0.40350877192982454,0.5263157894736842,0.07017543859649122,0.41025641025641024,0.5128205128205128,0.07692307692307693,0.4716981132075472,0.5283018867924528,-0.05263157894736842,-0.05660377358490565,28,18.0,No,"headphones, in-ear",7-9,English,Mostly the difference between one note and the next and whether the jump sounded the same in the options,SONA for course credit,,Yes,Female,,6,2,No,,Strongly Agree,Agree,Timing and notes,2021-09-18 13:56:42,41650
53,S1C0836,diatonic,True,BBABAABABAAABBABBAABBABBABABBABBABABAABABBBBABABABBBBAABABABABBAAABABBBBBABABAAABBABBABAABBABBABBABABABAABAB,3.6548545502440297,1864.3999999761581,1715.3999999761581,1882.9000000953674,1870.2999999523163,-167.5000001192093,0.9110414785114846,8.0,30,25,5.0,25,30,5.0,48,60,9.0,117.0,60.0,60.0,55.0,0.5,0.4166666666666667,0.08333333333333333,0.4166666666666667,0.5,0.08333333333333333,0.41025641025641024,0.5128205128205128,0.07692307692307693,0.5454545454545454,0.45454545454545453,0.08333333333333331,0.09090909090909088,28,18.0,No,"headphones, in-ear",7-9,English,Mostly the difference between one note and the next and whether the jump sounded the same in the options,SONA for course credit,,Yes,Female,,6,2,No,,Strongly Agree,Agree,Timing and notes,2021-09-18 13:56:42,41650
54,S1C0837,chromatic,True,BBABABBAAAABABBBAAABAAAABABABBABAABBAABBBABBBAABABBABABABBBBABAABBAABABAABBBABBBABABABABABBBABAABAAABAAABBAAAAABAAABAAB,1.9414831529678878,1426.0,1134.6000000014901,1726.300000000745,0.0,-591.6999999992549,0.6572438162549965,8.0,27,32,0.0,26,33,0.0,61,58,0.0,119.0,59.0,59.0,59.0,0.4576271186440678,0.5423728813559322,0.0,0.4406779661016949,0.559322033898305,0.0,0.5126050420168067,0.48739495798319327,0.0,0.4576271186440678,0.5423728813559322,-0.0847457627118644,-0.0847457627118644,29,19.0,No,headphones in the ear ,10-19,English,I said the ones with notes in a different key were more different. ,SONA for course credit,,Yes,Female,,10,9+,"Yes, I do alright","Piano, guitar",Strongly Agree,,if the note was flat or in a different key,2021-09-18 16:38:47,41762
55,S1C0837,diatonic,True,BBABABBAAAABABBBAAABAAAABABABBABAABBAABBBABBBAABABBABABABBBBABAABBAABABAABBBABBBABABABABABBBABAABAAABAAABBAAAAABAAABAAB,1.9414831529678878,1320.2999999988824,1254.800000000745,1458.4000000022352,0.0,-203.60000000149012,0.8603949533727523,8.0,47,13,0.0,35,25,0.0,61,58,0.0,119.0,60.0,60.0,60.0,0.7833333333333333,0.21666666666666667,0.0,0.5833333333333334,0.4166666666666667,0.0,0.5126050420168067,0.48739495798319327,0.0,0.7833333333333333,0.21666666666666667,0.5666666666666667,0.5666666666666667,29,19.0,No,headphones in the ear ,10-19,English,I said the ones with notes in a different key were more different. ,SONA for course credit,,Yes,Female,,10,9+,"Yes, I do alright","Piano, guitar",Strongly Agree,,if the note was flat or in a different key,2021-09-18 16:38:47,41762
56,S1C0838,chromatic,False,ABBABBAABBBBABAAAAABBBBBAABBAABABABBAABBBABBABAAAABAABAAAAABABBABBAAABBAABBAAABAAABABBABAABABBAAABBABAABABBAAABBAA,0.6203513463208772,1002.5,2992.2000000178814,909.1500000059605,2403.599999964237,2083.050000011921,3.2912060716034364,8.0,6,50,3.0,29,27,3.0,61,53,5.0,119.0,59.0,59.0,56.0,0.1016949152542373,0.847457627118644,0.05084745762711865,0.4915254237288136,0.4576271186440678,0.05084745762711865,0.5126050420168067,0.44537815126050423,0.04201680672268908,0.10714285714285714,0.8928571428571429,-0.7457627118644068,-0.7857142857142858,30,19.0,No,in-ear,,Chinese (Mandarin),,SONA for course credit,,No,Female,,3,0,"Yes, but not so well",clarinet,Neither Agree nor Disagree,Neither Agree nor Disagree,No,2021-09-18 15:18:32,41724
57,S1C0838,diatonic,False,ABBABBAABBBBABAAAAABBBBBAABBAABABABBAABBBABBABAAAABAABAAAAABABBABBAAABBAABBAAABAAABABBABAABABBAAABBABAABABBAAABBAA,0.6203513463208772,951.6999999880791,1506.2000000178814,843.9999999701977,2466.949999988079,662.2000000476837,1.7845971564823062,8.0,10,48,2.0,32,26,2.0,61,53,5.0,119.0,60.0,60.0,58.0,0.16666666666666666,0.8,0.03333333333333333,0.5333333333333333,0.43333333333333335,0.03333333333333333,0.5126050420168067,0.44537815126050423,0.04201680672268908,0.1724137931034483,0.8275862068965517,-0.6333333333333334,-0.6551724137931034,30,19.0,No,in-ear,,Chinese (Mandarin),,SONA for course credit,,No,Female,,3,0,"Yes, but not so well",clarinet,Neither Agree nor Disagree,Neither Agree nor Disagree,No,2021-09-18 15:18:32,41724
58,S1C0839,chromatic,True,ABBBAABAAAABBBABBBBBBAABAAAABAAAABAAABBBBAAAAABAABBABBABAAAABBAAAABBBBBABAAABAAAABBAAAAAAAABAABBAABAAB,-1.7284513642269335,2182.10000000149,2661.14999999851,1798.5,4429.95000000298,862.6499999985099,1.4796497080892466,8.0,24,26,10.0,32,18,10.0,60,42,18.0,120.0,60.0,60.0,50.0,0.4,0.43333333333333335,0.16666666666666666,0.5333333333333333,0.3,0.16666666666666666,0.5,0.35,0.15,0.48,0.52,-0.033333333333333326,-0.040000000000000036,31,18.0,No,Earphones (in ear),,Spanish,,SONA for course credit,,No,Female,,1,0,No,,Strongly Agree,Agree,Keeping my eyes closed and keeping track of the beats and the time between them,2021-09-18 15:21:47,41867
59,S1C0839,diatonic,True,ABBBAABAAAABBBABBBBBBAABAAAABAAAABAAABBBBAAAAABAABBABBABAAAABBAAAABBBBBABAAABAAAABBAAAAAAAABAABBAABAAB,-1.7284513642269335,2833.0,2221.7000000029802,2102.8999999910593,5607.30000000447,118.80000001192093,1.0564934138629636,8.0,21,31,8.0,28,24,8.0,60,42,18.0,120.0,60.0,60.0,52.0,0.35,0.5166666666666667,0.13333333333333333,0.4666666666666667,0.4,0.13333333333333333,0.5,0.35,0.15,0.40384615384615385,0.5961538461538461,-0.16666666666666674,-0.1923076923076923,31,18.0,No,Earphones (in ear),,Spanish,,SONA for course credit,,No,Female,,1,0,No,,Strongly Agree,Agree,Keeping my eyes closed and keeping track of the beats and the time between them,2021-09-18 15:21:47,41867
60,S1C1201,chromatic,True,BABBABABABBBAAAABAAAABAABABABBAABAABAAAABBBBABBBAABAAAAAAABAABABAAAABBBAAAAAAABAAAAAAAAABABBBBAAAAABBBAABBBBBABABBABABAB,-0.4401373992659094,1640.7500000149012,1584.0,1682.6500000208616,0.0,-98.65000002086163,0.9413722402046543,12.0,28,32,0.0,36,24,0.0,70,50,0.0,120.0,60.0,60.0,60.0,0.4666666666666667,0.5333333333333333,0.0,0.6,0.4,0.0,0.5833333333333334,0.4166666666666667,0.0,0.4666666666666667,0.5333333333333333,-0.06666666666666665,-0.06666666666666665,32,20.0,No,in ear headphones,,Other (please specify below):,,SONA for course credit,Bengali,No,Female,,0,0,No,,Strongly Agree,Agree,,2021-09-04 19:33:28,40094
61,S1C1201,diatonic,True,BABBABABABBBAAAABAAAABAABABABBAABAABAAAABBBBABBBAABAAAAAAABAABABAAAABBBAAAAAAABAAAAAAAAABABBBBAAAAABBBAABBBBBABABBABABAB,-0.4401373992659094,1947.2500000149012,1933.75,2104.1000000089407,0.0,-170.3500000089407,0.9190390190541244,12.0,30,30,0.0,34,26,0.0,70,50,0.0,120.0,60.0,60.0,60.0,0.5,0.5,0.0,0.5666666666666667,0.43333333333333335,0.0,0.5833333333333334,0.4166666666666667,0.0,0.5,0.5,0.0,0.0,32,20.0,No,in ear headphones,,Other (please specify below):,,SONA for course credit,Bengali,No,Female,,0,0,No,,Strongly Agree,Agree,,2021-09-04 19:33:28,40094
62,S1C1202,chromatic,True,BBAAABBABBAABABBABBBABABBABABABBABABBAAABAAAAAAABAAAABABABABABBBBAAABBBABBBABABABBBABBABABAAABABBBABBBAABAAABBAABB,1.7086899218921894,1199.3499999940395,2156.2000000029802,869.0,1073.7999999970198,1287.2000000029802,2.4812428078285156,12.0,25,30,5.0,29,26,5.0,55,59,6.0,120.0,60.0,60.0,55.0,0.4166666666666667,0.5,0.08333333333333333,0.48333333333333334,0.43333333333333335,0.08333333333333333,0.4583333333333333,0.49166666666666664,0.05,0.45454545454545453,0.5454545454545454,-0.08333333333333331,-0.09090909090909088,33,,No,in-ear,,Chinese (Mandarin),,SONA for course credit,,No,Male,,6,0,No,,Agree,Agree,,2021-09-04 20:14:03,41054
63,S1C1202,diatonic,True,BBAAABBABBAABABBABBBABABBABABABBABABBAAABAAAAAAABAAAABABABABABBBBAAABBBABBBABABABBBABBABABAAABABBBABBBAABAAABBAABB,1.7086899218921894,1951.1000000014901,1583.6000000014901,2148.300000000745,9615.29999999702,-564.6999999992549,0.7371409952059493,12.0,23,36,1.0,26,33,1.0,55,59,6.0,120.0,60.0,60.0,59.0,0.38333333333333336,0.6,0.016666666666666666,0.43333333333333335,0.55,0.016666666666666666,0.4583333333333333,0.49166666666666664,0.05,0.3898305084745763,0.6101694915254238,-0.21666666666666662,-0.22033898305084748,33,,No,in-ear,,Chinese (Mandarin),,SONA for course credit,,No,Male,,6,0,No,,Agree,Agree,,2021-09-04 20:14:03,41054
64,S1C1204,chromatic,True,BBBBBABBBBBABBBBBBBBABBBBAABBBBABBBBBBBBAABBBABBBABBBABBAAAABBBBABBBBBABABBBAABABBBBBABABAAAAABB,-0.9125402147749816,1181.0499999523163,1181.0499999523163,1121.9000000953674,1670.7999997138977,59.14999985694885,1.0527230589641865,12.0,26,29,5.0,15,40,5.0,28,68,24.0,120.0,60.0,60.0,55.0,0.43333333333333335,0.48333333333333334,0.08333333333333333,0.25,0.6666666666666666,0.08333333333333333,0.23333333333333334,0.5666666666666667,0.2,0.4727272727272727,0.5272727272727272,-0.04999999999999999,-0.05454545454545451,34,19.0,No,in-ear headphones,,English,Some tones would stand out as different and I could hear them loud and clear,SONA for course credit,,Yes,Female,,0,0,No,,Strongly Agree,Disagree,I focused on the cross and listened for any off-key sounds,2021-09-05 19:18:35,41422
65,S1C1204,diatonic,True,BBBBBABBBBBABBBBBBBBABBBBAABBBBABBBBBBBBAABBBABBBABBBABBAAAABBBBABBBBBABABBBAABABBBBBABABAAAAABB,-0.9125402147749816,1279.8000001907349,820.0999999046326,1238.5,2002.3999996185303,-418.40000009536743,0.6621719821595742,12.0,29,12,19.0,13,28,19.0,28,68,24.0,120.0,60.0,60.0,41.0,0.48333333333333334,0.2,0.31666666666666665,0.21666666666666667,0.4666666666666667,0.31666666666666665,0.23333333333333334,0.5666666666666667,0.2,0.7073170731707317,0.2926829268292683,0.2833333333333333,0.4146341463414634,34,19.0,No,in-ear headphones,,English,Some tones would stand out as different and I could hear them loud and clear,SONA for course credit,,Yes,Female,,0,0,No,,Strongly Agree,Disagree,I focused on the cross and listened for any off-key sounds,2021-09-05 19:18:35,41422
66,S1C1205,chromatic,True,BBBABAAABBBAABBBABAABBABBBABBBBBABAABBBBBBBBBABBABABABABBABBABAABBBBAABBABBBBBABBABAABABABABAB,1.932209025155268,3028.750000000233,3071.5500000000466,2937.2000000001863,2380.0,134.3499999998603,1.0457408416178169,12.0,30,17,13.0,20,27,13.0,34,60,26.0,120.0,60.0,60.0,47.0,0.5,0.2833333333333333,0.21666666666666667,0.3333333333333333,0.45,0.21666666666666667,0.2833333333333333,0.5,0.21666666666666667,0.6382978723404256,0.3617021276595745,0.21666666666666667,0.2765957446808511,35,19.0,No,Airpods,"High School, 14-18",English,,SONA for course credit,,No,Female,,6,4,No,,Strongly Agree,Disagree,"No real strategy, just listened for wrong notes",2021-09-06 16:57:56,40727
67,S1C1205,diatonic,True,BBBABAAABBBAABBBABAABBABBBABBBBBABAABBBBBBBBBABBABABABABBABBABAABBBBAABBABBBBBABBABAABABABABAB,1.932209025155268,2320.6500000001397,2567.3000000002794,1988.7999999998137,2744.2000000001863,578.5000000004657,1.2908789219632542,12.0,29,18,13.0,14,33,13.0,34,60,26.0,120.0,60.0,60.0,47.0,0.48333333333333334,0.3,0.21666666666666667,0.23333333333333334,0.55,0.21666666666666667,0.2833333333333333,0.5,0.21666666666666667,0.6170212765957447,0.3829787234042553,0.18333333333333335,0.23404255319148937,35,19.0,No,Airpods,"High School, 14-18",English,,SONA for course credit,,No,Female,,6,4,No,,Strongly Agree,Disagree,"No real strategy, just listened for wrong notes",2021-09-06 16:57:56,40727
68,S1C1206,chromatic,True,BABBBABAABAAABAAAABBBABABBABBBBBABABBBABBBBBAAAAAAAABBABBABAABABAAABBABBBABBBBBBABBBBAABBABAABBABABBBB,0.052022742515130525,785.5500000119209,504.64999997615814,735.8000000119209,1125.2500000298023,-231.1500000357628,0.6858521336884781,12.0,22,28,10.0,22,28,10.0,43,59,18.0,120.0,60.0,60.0,50.0,0.36666666666666664,0.4666666666666667,0.16666666666666666,0.36666666666666664,0.4666666666666667,0.16666666666666666,0.35833333333333334,0.49166666666666664,0.15,0.44,0.56,-0.10000000000000003,-0.12000000000000005,36,19.0,Yes,I listened to the task using Jabra Elite 65t wireless earbuds,13-15,English,I felt like it was easier to notice a difference from the original melody when the change had a note turn into a sharp or a flat,SONA for course credit,,Yes,Male,"I felt the changes got less overt over the course of the task and that the latter changes involved changing steps into skips, so I tried to listen for that instead",5,3,"Yes, but not so well","Piano, Ukulele",Agree,Agree,I mainly just tried to memorize the initial melody's beginning and end with some attention towards the middle and then listened for changes to that middle section,2021-09-06 22:32:12,41427
69,S1C1206,diatonic,True,BABBBABAABAAABAAAABBBABABBABBBBBABABBBABBBBBAAAAAAAABBABBABAABABAAABBABBBABBBBBBABBBBAABBABAABBABABBBB,0.052022742515130525,669.7500000298023,437.65000000596046,756.0,1444.5,-318.34999999403954,0.5789021164100007,12.0,42,10,8.0,21,31,8.0,43,59,18.0,120.0,60.0,60.0,52.0,0.7,0.16666666666666666,0.13333333333333333,0.35,0.5166666666666667,0.13333333333333333,0.35833333333333334,0.49166666666666664,0.15,0.8076923076923077,0.19230769230769232,0.5333333333333333,0.6153846153846154,36,19.0,Yes,I listened to the task using Jabra Elite 65t wireless earbuds,13-15,English,I felt like it was easier to notice a difference from the original melody when the change had a note turn into a sharp or a flat,SONA for course credit,,Yes,Male,"I felt the changes got less overt over the course of the task and that the latter changes involved changing steps into skips, so I tried to listen for that instead",5,3,"Yes, but not so well","Piano, Ukulele",Agree,Agree,I mainly just tried to memorize the initial melody's beginning and end with some attention towards the middle and then listened for changes to that middle section,2021-09-06 22:32:12,41427
70,S1C1207,chromatic,True,BAAAABAABAABABABBAABBBABAABBBAB,0.9202618974568667,1780.25,1871.699999999255,1146.8999999985099,1836.4500000011176,724.8000000007451,1.631964425845049,12.0,7,5,48.0,3,9,48.0,16,15,89.0,120.0,60.0,60.0,12.0,0.11666666666666667,0.08333333333333333,0.8,0.05,0.15,0.8,0.13333333333333333,0.125,0.7416666666666667,0.5833333333333334,0.4166666666666667,0.03333333333333334,0.16666666666666669,37,19.0,No,Earbud,12-17,English,,SONA for course credit,,No,Other,,7,5,"Yes, I do alright",Piano,Agree,Agree,Instinct,2021-09-06 22:43:36,41026
71,S1C1207,diatonic,True,BAAAABAABAABABABBAABBBABAABBBAB,0.9202618974568667,1870.6499999985099,1911.699999999255,1686.5,1574.9000000059605,225.19999999925494,1.1335309813218233,12.0,11,8,41.0,13,6,41.0,16,15,89.0,120.0,60.0,60.0,19.0,0.18333333333333332,0.13333333333333333,0.6833333333333333,0.21666666666666667,0.1,0.6833333333333333,0.13333333333333333,0.125,0.7416666666666667,0.5789473684210527,0.42105263157894735,0.04999999999999999,0.1578947368421053,37,19.0,No,Earbud,12-17,English,,SONA for course credit,,No,Other,,7,5,"Yes, I do alright",Piano,Agree,Agree,Instinct,2021-09-06 22:43:36,41026
72,S1C1208,chromatic,True,BABABABAABBBAAABBBABAABABABABBABAABBAAABAABBBABAABAAABBAABABBBBABBABBAABABABBAABBAABAABBABBABABBAABAAABAABABBABABABBAA,2.9585091100579244,1732.4000000059605,1639.0499999821186,1846.4500000178814,0.0,-207.4000000357628,0.8876763519002657,12.0,40,20,0.0,28,32,0.0,59,59,2.0,120.0,60.0,60.0,60.0,0.6666666666666666,0.3333333333333333,0.0,0.4666666666666667,0.5333333333333333,0.0,0.49166666666666664,0.49166666666666664,0.016666666666666666,0.6666666666666666,0.3333333333333333,0.3333333333333333,0.3333333333333333,38,18.0,Yes,I listened to the task using headphones-- specifically air pods in-ear. ,10-14,English,"I found that lower-tone out-of-place notes were the most distinguishable factor in unlikeliness to the original melody. I found that if a melody contained a low note not originally found in the melody it was much easier to select it as ""the most different."" ",SONA for course credit,,Yes,Female,"Sometimes I would notice that despite the sole low-note, the rest of the melody remained very similar to the original. I ended up selecting some of the lower-note options because I felt that there were more melodic ""mistakes"" in the counterpart.",6,4,No,,Strongly Agree,Agree,"I mentally recorded the first and last notes more-so than the middle, aiding in my comparison between the samples. I also noted the rhythm the original melody produced and compared it to the melodis.",2021-09-07 00:44:05,41404
73,S1C1208,diatonic,True,BABABABAABBBAAABBBABAABABABABBABAABBAAABAABBBABAABAAABBAABABBBBABBABBAABABABBAABBAABAABBABBABABBAABAAABAABABBABABABBAA,2.9585091100579244,1930.7500000298023,1770.4000000357628,2009.300000011921,5903.750000029802,-238.89999997615814,0.8811028716594134,12.0,36,22,2.0,31,27,2.0,59,59,2.0,120.0,60.0,60.0,58.0,0.6,0.36666666666666664,0.03333333333333333,0.5166666666666667,0.45,0.03333333333333333,0.49166666666666664,0.49166666666666664,0.016666666666666666,0.6206896551724138,0.3793103448275862,0.23333333333333334,0.24137931034482762,38,18.0,Yes,I listened to the task using headphones-- specifically air pods in-ear. ,10-14,English,"I found that lower-tone out-of-place notes were the most distinguishable factor in unlikeliness to the original melody. I found that if a melody contained a low note not originally found in the melody it was much easier to select it as ""the most different."" ",SONA for course credit,,Yes,Female,"Sometimes I would notice that despite the sole low-note, the rest of the melody remained very similar to the original. I ended up selecting some of the lower-note options because I felt that there were more melodic ""mistakes"" in the counterpart.",6,4,No,,Strongly Agree,Agree,"I mentally recorded the first and last notes more-so than the middle, aiding in my comparison between the samples. I also noted the rhythm the original melody produced and compared it to the melodis.",2021-09-07 00:44:05,41404
74,S1C1209,chromatic,True,BBBAABAABABABABABBABAABABABBABBBABBBBABABABAAAABBBABABABBBAAAABBABBAAAAABBBAABAAAABABABBAABAABAABABBABBAABBBAABBABA,2.1552091094623984,1143.1500000003725,871.5,1425.7999999988824,1393.8500000005588,-554.2999999988824,0.6112357974475264,12.0,25,31,4.0,25,31,4.0,57,58,5.0,120.0,60.0,60.0,56.0,0.4166666666666667,0.5166666666666667,0.06666666666666667,0.4166666666666667,0.5166666666666667,0.06666666666666667,0.475,0.48333333333333334,0.041666666666666664,0.44642857142857145,0.5535714285714286,-0.10000000000000003,-0.10714285714285715,39,18.0,No,Over-the-ear headphones- Beats Solo 3,12-14,English,I noticed that some melodies were shorter or had drastically different notes,SONA for course credit,,Yes,Female,,10,2,"Yes, I do alright","Flute, clarinet",Strongly Agree,Agree,Determine the differences in the notes,2021-09-08 18:27:14,41429
75,S1C1209,diatonic,True,BBBAABAABABABABABBABAABABABBABBBABBBBABABABAAAABBBABABABBBAAAABBABBAAAAABBBAABAAAABABABBAABAABAABABBABBAABBBAABBABA,2.1552091094623984,956.0,773.1999999992549,1346.7999999998137,24098.0,-573.6000000005588,0.5741015741011003,12.0,35,24,1.0,32,27,1.0,57,58,5.0,120.0,60.0,60.0,59.0,0.5833333333333334,0.4,0.016666666666666666,0.5333333333333333,0.45,0.016666666666666666,0.475,0.48333333333333334,0.041666666666666664,0.5932203389830508,0.4067796610169492,0.18333333333333335,0.18644067796610164,39,18.0,No,Over-the-ear headphones- Beats Solo 3,12-14,English,I noticed that some melodies were shorter or had drastically different notes,SONA for course credit,,Yes,Female,,10,2,"Yes, I do alright","Flute, clarinet",Strongly Agree,Agree,Determine the differences in the notes,2021-09-08 18:27:14,41429
76,S1C1210,chromatic,True,BABBAAAABBABBAABBABBABAABAABAAABABABBAAABBABABABABABABABBABABAABBABAABAAABBBABAABAAABAABAABBAABAAAABAABBB,2.7436919663456893,2550.5000000037253,2497.39999999851,2428.39999999851,3095.5,69.0,1.0284137703838092,12.0,24,29,7.0,27,26,7.0,57,48,15.0,120.0,60.0,60.0,53.0,0.4,0.48333333333333334,0.11666666666666667,0.45,0.43333333333333335,0.11666666666666667,0.475,0.4,0.125,0.4528301886792453,0.5471698113207547,-0.08333333333333331,-0.09433962264150941,40,18.0,No,I listened to the task using headphones- in ear airpods. ,,English,They used different majors and minor keys.,SONA for course credit,,Yes,Female,,2,0,No,,Strongly Agree,Neither Agree nor Disagree,I zoned myself into the melodies using my headphones. It was easier to hear the different melodies that way. ,2021-09-15 13:37:39,41677
77,S1C1210,diatonic,True,BABBAAAABBABBAABBABBABAABAABAAABABABBAAABBABABABABABABABBABABAABBABAABAAABBBABAABAAABAABAABBAABAAAABAABBB,2.7436919663456893,2752.10000000149,3237.0,2022.2999999970198,2912.449999999255,1214.7000000029802,1.600652722150408,12.0,22,30,8.0,30,22,8.0,57,48,15.0,120.0,60.0,60.0,52.0,0.36666666666666664,0.5,0.13333333333333333,0.5,0.36666666666666664,0.13333333333333333,0.475,0.4,0.125,0.4230769230769231,0.5769230769230769,-0.13333333333333336,-0.1538461538461538,40,18.0,No,I listened to the task using headphones- in ear airpods. ,,English,They used different majors and minor keys.,SONA for course credit,,Yes,Female,,2,0,No,,Strongly Agree,Neither Agree nor Disagree,I zoned myself into the melodies using my headphones. It was easier to hear the different melodies that way. ,2021-09-15 13:37:39,41677
78,S1C1211,chromatic,False,BBAABABABABABBBBAABAABABBABABAABBABABAABABAABAABBABABAAABAABAABABBAAABAABBBAAABBBBBAAABABBBAABBBBAABABA,2.2786270656224246,1181.7999999970198,944.0,1487.3999999985099,2159.4000000059605,-543.3999999985099,0.634664515262166,12.0,29,20,11.0,21,28,11.0,52,51,17.0,120.0,60.0,60.0,49.0,0.48333333333333334,0.3333333333333333,0.18333333333333332,0.35,0.4666666666666667,0.18333333333333332,0.43333333333333335,0.425,0.14166666666666666,0.5918367346938775,0.40816326530612246,0.15000000000000002,0.18367346938775508,41,18.0,No,airpods in-ear,12,English,,SONA for course credit,,No,Female,,9,6,"Yes, I am near professional","flute, piano",Disagree,Agree,,2021-09-15 13:39:00,41657
79,S1C1211,diatonic,False,BBAABABABABABBBBAABAABABBABABAABBABABAABABAABAABBABABAAABAABAABABBAAABAABBBAAABBBBBAAABABBBAABBBBAABABA,2.2786270656224246,988.2500000074506,958.4000000059605,817.5,1498.4999999925494,140.90000000596046,1.172354740068453,12.0,35,19,6.0,31,23,6.0,52,51,17.0,120.0,60.0,60.0,54.0,0.5833333333333334,0.31666666666666665,0.1,0.5166666666666667,0.38333333333333336,0.1,0.43333333333333335,0.425,0.14166666666666666,0.6481481481481481,0.35185185185185186,0.2666666666666667,0.2962962962962963,41,18.0,No,airpods in-ear,12,English,,SONA for course credit,,No,Female,,9,6,"Yes, I am near professional","flute, piano",Disagree,Agree,,2021-09-15 13:39:00,41657
80,S1C1212,chromatic,True,ABBBABBBAABBBAAABABABABABBABABBBABBAAABABABABAABAAAABAAAAAABAABABAAABBAABABBBAABABBABAAAAAAABABABBBABBABBAABAABAABAB,2.148083325260855,1366.0499999988824,1349.5999999996275,1698.300000000745,3482.6500000003725,-348.7000000011176,0.7946770299705797,12.0,37,21,2.0,30,28,2.0,63,53,4.0,120.0,60.0,60.0,58.0,0.6166666666666667,0.35,0.03333333333333333,0.5,0.4666666666666667,0.03333333333333333,0.525,0.44166666666666665,0.03333333333333333,0.6379310344827587,0.3620689655172414,0.2666666666666667,0.2758620689655173,42,19.0,No,In-ear airpods,10-18,English,Some of the melodies were changed from going up the octave to down,SONA for course credit,,Yes,Female,,6,8,"Yes, I do alright",Trumpet,Agree,Neither Agree nor Disagree,Just based off what differences I noticed and how far I felt they were from the original,2021-09-15 13:36:33,41500
81,S1C1212,diatonic,True,ABBBABBBAABBBAAABABABABABBABABBBABBAAABABABABAABAAAABAAAAAABAABABAAABBAABABBBAABABBABAAAAAAABABABBBABBABBAABAABAABAB,2.148083325260855,1768.5999999996275,1588.5999999996275,1961.300000000745,3408.100000000559,-372.7000000011176,0.8099729771065233,12.0,36,22,2.0,33,25,2.0,63,53,4.0,120.0,60.0,60.0,58.0,0.6,0.36666666666666664,0.03333333333333333,0.55,0.4166666666666667,0.03333333333333333,0.525,0.44166666666666665,0.03333333333333333,0.6206896551724138,0.3793103448275862,0.23333333333333334,0.24137931034482762,42,19.0,No,In-ear airpods,10-18,English,Some of the melodies were changed from going up the octave to down,SONA for course credit,,Yes,Female,,6,8,"Yes, I do alright",Trumpet,Agree,Neither Agree nor Disagree,Just based off what differences I noticed and how far I felt they were from the original,2021-09-15 13:36:33,41500
82,S1C1213,chromatic,True,BBABBAABABBABABBBAAAAABBABBBBBBBABABBBBBBBBABAABABBAABABBBBAABBABAAABBBBABBAABBBBBABABBAAABABAAABBBAABABBABBABBBAAABABAA,0.5030141705896097,821.4499999284744,876.2000000476837,661.2999999523163,0.0,214.90000009536743,1.3249659762753108,12.0,39,21,0.0,27,33,0.0,50,70,0.0,120.0,60.0,60.0,60.0,0.65,0.35,0.0,0.45,0.55,0.0,0.4166666666666667,0.5833333333333334,0.0,0.65,0.35,0.30000000000000004,0.30000000000000004,43,18.0,No,"in-ear, airpods pro.",15-17,English,Changes in intervals,SONA for course credit,,Yes,Female,,3,3,"Yes, I do alright",Violin,Strongly Agree,Agree,Intervals,2021-09-15 13:53:52,41471
83,S1C1213,diatonic,True,BBABBAABABBABABBBAAAAABBABBBBBBBABABBBBBBBBABAABABBAABABBBBAABBABAAABBBBABBAABBBBBABABBAAABABAAABBBAABABBABBABBBAAABABAA,0.5030141705896097,549.3500000238419,576.1000001430511,394.7000000476837,0.0,181.40000009536743,1.4595895618785217,12.0,53,7,0.0,23,37,0.0,50,70,0.0,120.0,60.0,60.0,60.0,0.8833333333333333,0.11666666666666667,0.0,0.38333333333333336,0.6166666666666667,0.0,0.4166666666666667,0.5833333333333334,0.0,0.8833333333333333,0.11666666666666667,0.7666666666666666,0.7666666666666666,43,18.0,No,"in-ear, airpods pro.",15-17,English,Changes in intervals,SONA for course credit,,Yes,Female,,3,3,"Yes, I do alright",Violin,Strongly Agree,Agree,Intervals,2021-09-15 13:53:52,41471
84,S1C1214,chromatic,True,BABBBBBBBBAAAAABBBBBABBBABBBBBBBBABAABBBB,-1.6623481526219996,1081.8999999985099,934.7000000029802,1356.300000011921,1070.9500000029802,-421.6000000089407,0.6891543168876834,12.0,7,9,44.0,4,12,44.0,11,30,79.0,120.0,60.0,60.0,16.0,0.11666666666666667,0.15,0.7333333333333333,0.06666666666666667,0.2,0.7333333333333333,0.09166666666666666,0.25,0.6583333333333333,0.4375,0.5625,-0.033333333333333326,-0.125,44,21.0,No,"earphones, in-ear ",10 to 13,English,,SONA for course credit,,No,Female,,6,3,"Yes, I do alright",piano and guitar ,Strongly Agree,Strongly Agree,listened to the intervals between each note and compared.,2021-09-18 12:19:16,41439
85,S1C1214,diatonic,True,BABBBBBBBBAAAAABBBBBABBBABBBBBBBBABAABBBB,-1.6623481526219996,1047.0500000044703,930.7999999970198,1367.6000000089407,1087.8999999910593,-436.80000001192093,0.6806083650123828,12.0,24,1,35.0,7,18,35.0,11,30,79.0,120.0,60.0,60.0,25.0,0.4,0.016666666666666666,0.5833333333333334,0.11666666666666667,0.3,0.5833333333333334,0.09166666666666666,0.25,0.6583333333333333,0.96,0.04,0.38333333333333336,0.9199999999999999,44,21.0,No,"earphones, in-ear ",10 to 13,English,,SONA for course credit,,No,Female,,6,3,"Yes, I do alright",piano and guitar ,Strongly Agree,Strongly Agree,listened to the intervals between each note and compared.,2021-09-18 12:19:16,41439
86,S1C1216,chromatic,True,BBBAABAABABAABBBABBBBABAAAABAAABBAAAABBABAAABBAABBBBAAAABABBABBBAAABBABBBAABBAAABBBAABABBA,-0.42402591878089224,2127.25,1420.8000000044703,1936.449999999255,2983.0,-515.6499999947846,0.7337137545534442,12.0,23,22,15.0,21,24,15.0,45,45,30.0,120.0,60.0,60.0,45.0,0.38333333333333336,0.36666666666666664,0.25,0.35,0.4,0.25,0.375,0.375,0.25,0.5111111111111111,0.4888888888888889,0.01666666666666672,0.0222222222222222,45,20.0,No,in-ear earbuds,13-16,Chinese (Mandarin),,SONA for course credit,,No,Female,,1,3,"Yes, but not so well","Violin, Guzheng",Strongly Agree,Strongly Agree,I try to remember the ending and beginning notes to distinguish the melodies,2021-09-18 20:57:59,41596
87,S1C1216,diatonic,True,BBBAABAABABAABBBABBBBABAAAABAAABBAAAABBABAAABBAABBBBAAAABABBABBBAAABBABBBAABBAAABBBAABABBA,-0.42402591878089224,2149.9499999955297,1662.5,1897.7000000029802,2768.10000000149,-235.20000000298023,0.8760604942811767,12.0,29,16,15.0,24,21,15.0,45,45,30.0,120.0,60.0,60.0,45.0,0.48333333333333334,0.26666666666666666,0.25,0.4,0.35,0.25,0.375,0.375,0.25,0.6444444444444445,0.35555555555555557,0.21666666666666667,0.2888888888888889,45,20.0,No,in-ear earbuds,13-16,Chinese (Mandarin),,SONA for course credit,,No,Female,,1,3,"Yes, but not so well","Violin, Guzheng",Strongly Agree,Strongly Agree,I try to remember the ending and beginning notes to distinguish the melodies,2021-09-18 20:57:59,41596
88,S1C1217,chromatic,True,BBABBABBBAABBBBABBAABBBBAABBBBBBBABBABABBBABBBAABBBABBBBBAAABBABBBAABBABBBBAABBAABBABBBBBBBABBBABBBABBBB,0.1134284435410879,1592.5999999940395,1578.9000000059605,1506.1499999910593,3816.0999999940395,72.75000001490116,1.0483019619661607,12.0,29,22,9.0,21,30,9.0,31,73,16.0,120.0,60.0,60.0,51.0,0.48333333333333334,0.36666666666666664,0.15,0.35,0.5,0.15,0.25833333333333336,0.6083333333333333,0.13333333333333333,0.5686274509803921,0.43137254901960786,0.1166666666666667,0.13725490196078427,46,18.0,No,in-ear headphones,,English,Repetitions and the key,SONA for course credit,,Yes,Female,,2,0,No,,Strongly Agree,Disagree,None,2021-09-15 22:34:03,41841
89,S1C1217,diatonic,True,BBABBABBBAABBBBABBAABBBBAABBBBBBBABBABABBBABBBAABBBABBBBBAAABBABBBAABBABBBBAABBAABBABBBBBBBABBBABBBABBBB,0.1134284435410879,1546.5,1273.5999999940395,2140.0999999940395,2294.800000011921,-866.5,0.5951123779251375,12.0,35,18,7.0,10,43,7.0,31,73,16.0,120.0,60.0,60.0,53.0,0.5833333333333334,0.3,0.11666666666666667,0.16666666666666666,0.7166666666666667,0.11666666666666667,0.25833333333333336,0.6083333333333333,0.13333333333333333,0.660377358490566,0.33962264150943394,0.2833333333333334,0.32075471698113206,46,18.0,No,in-ear headphones,,English,Repetitions and the key,SONA for course credit,,Yes,Female,,2,0,No,,Strongly Agree,Disagree,None,2021-09-15 22:34:03,41841
90,S1C1218,chromatic,True,BABAABBABAAAAAAABBBBBBABBABBABAABABBAABAABAAAAAABAABABBAABBBBABABAABABBAABAAABBBABAAABAAABAAAABAABBAABBBAABAAAAABBAABB,0.34334828002812173,1556.1500000059605,1875.5499999821186,1252.449999988079,3956.449999988079,623.0999999940395,1.4975048904147632,12.0,26,32,2.0,33,25,2.0,66,52,2.0,120.0,60.0,60.0,58.0,0.43333333333333335,0.5333333333333333,0.03333333333333333,0.55,0.4166666666666667,0.03333333333333333,0.55,0.43333333333333335,0.016666666666666666,0.4482758620689655,0.5517241379310345,-0.09999999999999998,-0.10344827586206895,47,19.0,No,"In ear headphones, airpods ",,English,Some keys were a different tone and it sounded off,SONA for course credit,,Yes,Female,,2,0,No,,Strongly Agree,Disagree,The sound of the keys being played,2021-09-15 21:40:38,41620
91,S1C1218,diatonic,True,BABAABBABAAAAAAABBBBBBABBABBABAABABBAABAABAAAAAABAABABBAABBBBABABAABABBAABAAABBBABAAABAAABAAAABAABBAABBBAABAAAAABBAABB,0.34334828002812173,1396.5499999821186,1350.199999988079,2302.5,0.0,-952.3000000119209,0.586406080342271,12.0,43,17,0.0,33,27,0.0,66,52,2.0,120.0,60.0,60.0,60.0,0.7166666666666667,0.2833333333333333,0.0,0.55,0.45,0.0,0.55,0.43333333333333335,0.016666666666666666,0.7166666666666667,0.2833333333333333,0.43333333333333335,0.43333333333333335,47,19.0,No,"In ear headphones, airpods ",,English,Some keys were a different tone and it sounded off,SONA for course credit,,Yes,Female,,2,0,No,,Strongly Agree,Disagree,The sound of the keys being played,2021-09-15 21:40:38,41620
92,S1C1219,chromatic,True,BABAABAABBAAABABAABAABBBABBBAAABBAABABBBABBAABBABABABABAABBBBBBAAABBBBABBAAABBABBABABBBAAABABAAABBABABBBBABBAA,1.2116383430707323,312.6500000022352,289.8999999985099,311.8500000014901,1924.75,-21.950000002980232,0.9296135962710427,12.0,36,20,4.0,22,34,4.0,51,59,10.0,120.0,60.0,60.0,56.0,0.6,0.3333333333333333,0.06666666666666667,0.36666666666666664,0.5666666666666667,0.06666666666666667,0.425,0.49166666666666664,0.08333333333333333,0.6428571428571429,0.35714285714285715,0.26666666666666666,0.28571428571428575,48,19.0,No,Bose over ear noise cancelling headphones ,13-14,English,where dissonance occurred and whether variations were higher or lower in litch,SONA for course credit,,Yes,Female,,8,2,"Yes, I do alright","guitar, bass",Strongly Agree,Agree,"note sequence, pitch, dissonance",2021-09-15 22:15:28,41648
93,S1C1219,diatonic,True,BABAABAABBAAABABAABAABBBABBBAAABBAABABBBABBAABBABABABABAABBBBBBAAABBBBABBAAABBABBABABBBAAABABAAABBABABBBBABBAA,1.2116383430707323,314.8500000014901,297.6000000014901,542.2999999970198,879.4500000029802,-244.69999999552965,0.5487737414772739,12.0,41,13,6.0,29,25,6.0,51,59,10.0,120.0,60.0,60.0,54.0,0.6833333333333333,0.21666666666666667,0.1,0.48333333333333334,0.4166666666666667,0.1,0.425,0.49166666666666664,0.08333333333333333,0.7592592592592593,0.24074074074074073,0.4666666666666667,0.5185185185185186,48,19.0,No,Bose over ear noise cancelling headphones ,13-14,English,where dissonance occurred and whether variations were higher or lower in litch,SONA for course credit,,Yes,Female,,8,2,"Yes, I do alright","guitar, bass",Strongly Agree,Agree,"note sequence, pitch, dissonance",2021-09-15 22:15:28,41648
94,S1C1220,chromatic,True,AABABBABBBBABBBABBABBABBBBBAAABBABBBBAABBBBABBABABABBABABAABBBBBBABBBBABBBBBBBBABBAAABBABAABBBBBABBAABAABAAAAABBABBBABAA,0.34243971332915996,1334.2000000029802,1692.3499999977648,1264.949999999255,0.0,427.3999999985099,1.3378789675471454,12.0,20,40,0.0,20,40,0.0,45,75,0.0,120.0,60.0,60.0,60.0,0.3333333333333333,0.6666666666666666,0.0,0.3333333333333333,0.6666666666666666,0.0,0.375,0.625,0.0,0.3333333333333333,0.6666666666666666,-0.3333333333333333,-0.3333333333333333,49,19.0,No,in ear apple air pods,,English,"sometimes there were obvious key changes, other times it sounded like two notes were swapped",SONA for course credit,,Yes,Female,,2,0,"Yes, but not so well",i played the drums in HS drumline & band class,Strongly Agree,Disagree,"not sure, i just listened ",2021-09-16 21:47:09,41854
95,S1C1220,diatonic,True,AABABBABBBBABBBABBABBABBBBBAAABBABBBBAABBBBABBABABABBABABAABBBBBBABBBBABBBBBBBBABBAAABBABAABBBBBABBAABAABAAAAABBABBBABAA,0.34243971332915996,1472.3999999985099,1511.6999999955297,1444.8999999985099,0.0,66.79999999701977,1.046231573117232,12.0,33,27,0.0,25,35,0.0,45,75,0.0,120.0,60.0,60.0,60.0,0.55,0.45,0.0,0.4166666666666667,0.5833333333333334,0.0,0.375,0.625,0.0,0.55,0.45,0.10000000000000003,0.10000000000000003,49,19.0,No,in ear apple air pods,,English,"sometimes there were obvious key changes, other times it sounded like two notes were swapped",SONA for course credit,,Yes,Female,,2,0,"Yes, but not so well",i played the drums in HS drumline & band class,Strongly Agree,Disagree,"not sure, i just listened ",2021-09-16 21:47:09,41854
96,S1C1221,chromatic,True,BAABABBBABAABBBBBABBAABABAABBBBAABAAABBBBABAABBBBBABBBBBBABABBABBBABABABB,1.0055179902056681,1854.8500000005588,1784.9000000003725,727.1499999994412,2499.4000000003725,1057.7500000009313,2.4546517224805666,12.0,20,16,24.0,11,25,24.0,27,46,47.0,120.0,60.0,60.0,36.0,0.3333333333333333,0.26666666666666666,0.4,0.18333333333333332,0.4166666666666667,0.4,0.225,0.38333333333333336,0.39166666666666666,0.5555555555555556,0.4444444444444444,0.06666666666666665,0.11111111111111116,50,18.0,No,in-ear,17,Other (please specify below):,,SONA for course credit,cantonese,No,Female,,6,1,"Yes, I do alright",violin,Strongly Agree,Agree,I tried to differentiate the notes being played.,2021-09-16 21:43:07,41532
97,S1C1221,diatonic,True,BAABABBBABAABBBBBABBAABABAABBBBAABAAABBBBABAABBBBBABBBBBBABABBABBBABABABB,1.0055179902056681,1591.4000000003725,1471.6499999994412,1505.5,1807.0,-33.85000000055879,0.9775157754894993,12.0,18,19,23.0,16,21,23.0,27,46,47.0,120.0,60.0,60.0,37.0,0.3,0.31666666666666665,0.38333333333333336,0.26666666666666666,0.35,0.38333333333333336,0.225,0.38333333333333336,0.39166666666666666,0.4864864864864865,0.5135135135135135,-0.016666666666666663,-0.027027027027026973,50,18.0,No,in-ear,17,Other (please specify below):,,SONA for course credit,cantonese,No,Female,,6,1,"Yes, I do alright",violin,Strongly Agree,Agree,I tried to differentiate the notes being played.,2021-09-16 21:43:07,41532
98,S1C1222,chromatic,True,BBBBABABAAABBBAABABBABABBBAABABAABAABBAABBAAAABABABBAABABAABBAABABAAABABBAAABAAAABBBBABBBAABAAABABABBABAAAAAAABBABBABAAB,1.5224856460949856,1434.8000000002794,1480.3499999998603,1319.600000000326,0.0,160.74999999953434,1.1218172173382044,12.0,40,20,0.0,36,24,0.0,64,56,0.0,120.0,60.0,60.0,60.0,0.6666666666666666,0.3333333333333333,0.0,0.6,0.4,0.0,0.5333333333333333,0.4666666666666667,0.0,0.6666666666666666,0.3333333333333333,0.3333333333333333,0.3333333333333333,51,19.0,Yes,"earbuds, specifically airpods.",12-16,Spanish,"sometimes a sequence of notes would sound off, or they would sound good together (depending on the sequence of notes themselves or the high/low notes).",SONA for course credit,,Yes,Female,"4. I still used the same strategy for the most part, but I began using more intuition/instinct than anything.",6,6,"Yes, but not so well","Piano, violin, flute",Strongly Agree,Disagree,"the different high and low notes that were played, and any similar sequences.",2021-09-16 23:13:11,41708
99,S1C1222,diatonic,True,BBBBABABAAABBBAABABBABABBBAABABAABAABBAABBAAAABABABBAABABAABBAABABAAABABBAAABAAAABBBBABBBAABAAABABABBABAAAAAAABBABBABAAB,1.5224856460949856,1428.7500000004657,1254.8000000000466,1661.0,0.0,-406.19999999995343,0.7554485249849768,12.0,40,20,0.0,28,32,0.0,64,56,0.0,120.0,60.0,60.0,60.0,0.6666666666666666,0.3333333333333333,0.0,0.4666666666666667,0.5333333333333333,0.0,0.5333333333333333,0.4666666666666667,0.0,0.6666666666666666,0.3333333333333333,0.3333333333333333,0.3333333333333333,51,19.0,Yes,"earbuds, specifically airpods.",12-16,Spanish,"sometimes a sequence of notes would sound off, or they would sound good together (depending on the sequence of notes themselves or the high/low notes).",SONA for course credit,,Yes,Female,"4. I still used the same strategy for the most part, but I began using more intuition/instinct than anything.",6,6,"Yes, but not so well","Piano, violin, flute",Strongly Agree,Disagree,"the different high and low notes that were played, and any similar sequences.",2021-09-16 23:13:11,41708
100,S1C1225,chromatic,True,BAABABABABAABABABBABBBABBABBABABABABBABABBABABAAAAAABABABBABABABBAABABABABAABABAABAABABBBBBBAABAAABAAAAABABAAAABABA,4.082642660119264,1488.8999999985099,1631.7999999970198,1364.5999999940395,1712.9500000029802,267.20000000298023,1.1958082954742395,12.0,29,29,2.0,34,24,2.0,61,54,5.0,120.0,60.0,60.0,58.0,0.48333333333333334,0.48333333333333334,0.03333333333333333,0.5666666666666667,0.4,0.03333333333333333,0.5083333333333333,0.45,0.041666666666666664,0.5,0.5,0.0,0.0,52,19.0,No,headphones,,English,,SONA for course credit,,No,Female,,4,0,"Yes, but not so well",1,Strongly Agree,Agree,I listened to the key,2021-09-17 14:44:51,41540
101,S1C1225,diatonic,True,BAABABABABAABABABBABBBABBABBABABABABBABABBABABAAAAAABABABBABABABBAABABABABAABABAABAABABBBBBBAABAAABAAAAABABAAAABABA,4.082642660119264,1377.5,1307.5,1388.0500000044703,1456.2000000029802,-80.55000000447035,0.9419689492423104,12.0,41,16,3.0,27,30,3.0,61,54,5.0,120.0,60.0,60.0,57.0,0.6833333333333333,0.26666666666666666,0.05,0.45,0.5,0.05,0.5083333333333333,0.45,0.041666666666666664,0.7192982456140351,0.2807017543859649,0.4166666666666667,0.4385964912280702,52,19.0,No,headphones,,English,,SONA for course credit,,No,Female,,4,0,"Yes, but not so well",1,Strongly Agree,Agree,I listened to the key,2021-09-17 14:44:51,41540
102,S1C1226,chromatic,True,AABBBABBABBBABBBAAABBABABBAAABBBABABABBABBAABABAABBABBBAAABBABBBBBBABBABAAABBABBABBBBBABBABABBBAABBBAAAAABABAABABBABA,1.2779265209876471,1044.699999988079,832.8000000715256,1344.4999999403954,1979.5,-511.6999998688698,0.6194124210549985,12.0,27,32,1.0,32,27,1.0,50,67,3.0,120.0,60.0,60.0,59.0,0.45,0.5333333333333333,0.016666666666666666,0.5333333333333333,0.45,0.016666666666666666,0.4166666666666667,0.5583333333333333,0.025,0.4576271186440678,0.5423728813559322,-0.08333333333333331,-0.0847457627118644,53,18.0,No,In-ear headphones,,English,,SONA for course credit,,No,Female,,1,0,No,,Strongly Agree,Agree,,2021-09-17 16:13:44,41728
103,S1C1226,diatonic,True,AABBBABBABBBABBBAAABBABABBAAABBBABABABBABBAABABAABBABBBAAABBABBBBBBABBABAAABBABBABBBBBABBABABBBAABBBAAAAABABAABABBABA,1.2779265209876471,1007.5999999642372,750.75,1310.3999999761581,8851.399999976158,-559.6499999761581,0.5729166666770905,12.0,38,20,2.0,18,40,2.0,50,67,3.0,120.0,60.0,60.0,58.0,0.6333333333333333,0.3333333333333333,0.03333333333333333,0.3,0.6666666666666666,0.03333333333333333,0.4166666666666667,0.5583333333333333,0.025,0.6551724137931034,0.3448275862068966,0.3,0.31034482758620685,53,18.0,No,In-ear headphones,,English,,SONA for course credit,,No,Female,,1,0,No,,Strongly Agree,Agree,,2021-09-17 16:13:44,41728
104,S1C1228,chromatic,True,BBBBAABABBBBBABBAABABAAABBAABBABBBBABABBBABBABAABBBAABABBBABBBBABBABBAAABBAAABABABBBBABBBABBAABAABAABAAABBBA,0.8952021908775755,826.5,712.0999999940395,770.1500000059605,2383.500000014901,-58.05000001192093,0.9246250730228246,12.0,26,26,8.0,24,28,8.0,45,63,12.0,120.0,60.0,60.0,52.0,0.43333333333333335,0.43333333333333335,0.13333333333333333,0.4,0.4666666666666667,0.13333333333333333,0.375,0.525,0.1,0.5,0.5,0.0,0.0,54,20.0,No,in-ear earbuds,5-14,English,,SONA for course credit,,No,Female,,7,8,"Yes, I do alright","piano, violin",Strongly Agree,Disagree,listened to the notes/note placement,2021-09-17 15:24:25,41642
105,S1C1228,diatonic,True,BBBBAABABBBBBABBAABABAAABBAABBABBBBABABBBABBABAABBBAABABBBABBBBABBABBAAABBAAABABABBBBABBBABBAABAABAABAAABBBA,0.8952021908775755,814.0499999821186,672.2000000178814,1033.199999988079,2492.750000014901,-360.9999999701977,0.650600077454159,12.0,41,15,4.0,21,35,4.0,45,63,12.0,120.0,60.0,60.0,56.0,0.6833333333333333,0.25,0.06666666666666667,0.35,0.5833333333333334,0.06666666666666667,0.375,0.525,0.1,0.7321428571428571,0.26785714285714285,0.43333333333333335,0.46428571428571425,54,20.0,No,in-ear earbuds,5-14,English,,SONA for course credit,,No,Female,,7,8,"Yes, I do alright","piano, violin",Strongly Agree,Disagree,listened to the notes/note placement,2021-09-17 15:24:25,41642
106,S1C1230,chromatic,True,BAABBBBBABAABBBBABABBABAABABABAAABABBBBBABABBBABABBAABABAABBABABABABBBBABBAABABBABBBABAAAAAAABBAAAABABBBABB,1.7800936303249109,1730.6000000014901,1703.8000000044703,1716.7000000029802,2096.75,-12.899999998509884,0.9924855828050985,12.0,23,29,8.0,23,29,8.0,48,59,13.0,120.0,60.0,60.0,52.0,0.38333333333333336,0.48333333333333334,0.13333333333333333,0.38333333333333336,0.48333333333333334,0.13333333333333333,0.4,0.49166666666666664,0.10833333333333334,0.4423076923076923,0.5576923076923077,-0.09999999999999998,-0.11538461538461542,55,18.0,No,in-ear headphones,,Spanish,,SONA for course credit,,No,Female,,2,0,No,,Agree,Agree,,2021-09-17 19:46:58,41683
107,S1C1230,diatonic,True,BAABBBBBABAABBBBABABBABAABABABAAABABBBBBABABBBABABBAABABAABBABABABABBBBABBAABABBABBBABAAAAAAABBAAAABABBBABB,1.7800936303249109,1888.7999999970198,1976.2000000029802,1873.7999999970198,1747.5,102.40000000596046,1.0546483082538816,12.0,30,25,5.0,25,30,5.0,48,59,13.0,120.0,60.0,60.0,55.0,0.5,0.4166666666666667,0.08333333333333333,0.4166666666666667,0.5,0.08333333333333333,0.4,0.49166666666666664,0.10833333333333334,0.5454545454545454,0.45454545454545453,0.08333333333333331,0.09090909090909088,55,18.0,No,in-ear headphones,,Spanish,,SONA for course credit,,No,Female,,2,0,No,,Agree,Agree,,2021-09-17 19:46:58,41683
108,S1C1234,chromatic,True,ABAABABBBBBBAABBABBAAAABBBBAAABBABBBAAAAAABABBBABBABBABAABABBBBBAABBABBBBABBAABABBABBABBAABABBBAABBBABBABBABABBABBBBBBAB,0.6495804420447728,1458.949999999255,1458.949999999255,1514.4000000022352,0.0,-55.45000000298023,0.9633848388781706,12.0,26,34,0.0,26,34,0.0,48,72,0.0,120.0,60.0,60.0,60.0,0.43333333333333335,0.5666666666666667,0.0,0.43333333333333335,0.5666666666666667,0.0,0.4,0.6,0.0,0.43333333333333335,0.5666666666666667,-0.1333333333333333,-0.1333333333333333,56,19.0,No,in-ear,9,Chinese (Mandarin),,SONA for course credit,,No,Female,,3,1,"Yes, but not so well",Yang Qin,Strongly Agree,Agree,,2021-09-17 22:14:06,41485
109,S1C1234,diatonic,True,ABAABABBBBBBAABBABBAAAABBBBAAABBABBBAAAAAABABBBABBABBABAABABBBBBAABBABBBBABBAABABBABBABBAABABBBAABBBABBABBABABBABBBBBBAB,0.6495804420447728,1347.2000000029802,1194.6000000014901,1883.0,0.0,-688.3999999985099,0.6344131704734414,12.0,38,22,0.0,22,38,0.0,48,72,0.0,120.0,60.0,60.0,60.0,0.6333333333333333,0.36666666666666664,0.0,0.36666666666666664,0.6333333333333333,0.0,0.4,0.6,0.0,0.6333333333333333,0.36666666666666664,0.26666666666666666,0.26666666666666666,56,19.0,No,in-ear,9,Chinese (Mandarin),,SONA for course credit,,No,Female,,3,1,"Yes, but not so well",Yang Qin,Strongly Agree,Agree,,2021-09-17 22:14:06,41485
110,S1C1236,chromatic,True,ABABABBABABBBBBBABBAABBBBBABABABBBAABABBBABBBBBABBABBBABBABBBBBABBBBABBABBBBBBAABBBBBB,1.7290468759707587,944.1000000238419,724.3999999761581,777.0,1547.8999999761581,-52.60000002384186,0.9323037322730477,12.0,20,23,17.0,12,31,17.0,24,62,34.0,120.0,60.0,60.0,43.0,0.3333333333333333,0.38333333333333336,0.2833333333333333,0.2,0.5166666666666667,0.2833333333333333,0.2,0.5166666666666667,0.2833333333333333,0.46511627906976744,0.5348837209302325,-0.050000000000000044,-0.06976744186046507,57,18.0,No,in-ear ear buds,4-10,English,,SONA for course credit,,No,Female,,5,5,"Yes, I do alright",piano,Strongly Agree,Disagree,"pitch, tone",2021-09-18 15:33:06,41514
111,S1C1236,diatonic,True,ABABABBABABBBBBBABBAABBBBBABABABBBAABABBBABBBBBABBABBBABBABBBBBABBBBABBABBBBBBAABBBBBB,1.7290468759707587,877.0,722.7999999523163,672.1499999761581,1357.8999999761581,50.64999997615814,1.0753552034188123,12.0,23,20,17.0,12,31,17.0,24,62,34.0,120.0,60.0,60.0,43.0,0.38333333333333336,0.3333333333333333,0.2833333333333333,0.2,0.5166666666666667,0.2833333333333333,0.2,0.5166666666666667,0.2833333333333333,0.5348837209302325,0.46511627906976744,0.050000000000000044,0.06976744186046507,57,18.0,No,in-ear ear buds,4-10,English,,SONA for course credit,,No,Female,,5,5,"Yes, I do alright",piano,Strongly Agree,Disagree,"pitch, tone",2021-09-18 15:33:06,41514
112,S1C1238,chromatic,True,BBABBBBBBABBBBBBABBBABBAABABABAABBBBAAAABBBBABBBBAABBABABABA,0.48732167629774104,3580.3499999940395,1678.949999988079,3880.699999988079,4457.700000017881,-2201.75,0.4326410183712311,12.0,12,13,35.0,7,18,35.0,21,39,60.0,120.0,60.0,60.0,25.0,0.2,0.21666666666666667,0.5833333333333334,0.11666666666666667,0.3,0.5833333333333334,0.175,0.325,0.5,0.48,0.52,-0.016666666666666663,-0.040000000000000036,58,18.0,No,earphones ,,English,some of the options were more high pithced at some point,SONA for course credit,,Yes,Female,,4,0,No,,Strongly Agree,Strongly Disagree,,2021-09-18 17:31:27,41853
113,S1C1238,diatonic,True,BBABBBBBBABBBBBBABBBABBAABABABAABBBBAAAABBBBABBBBAABBABABABA,0.48732167629774104,2409.7000000029802,1065.8999999761581,6336.0,3646.9000000059605,-5270.100000023842,0.16822916666290375,12.0,25,10,25.0,14,21,25.0,21,39,60.0,120.0,60.0,60.0,35.0,0.4166666666666667,0.16666666666666666,0.4166666666666667,0.23333333333333334,0.35,0.4166666666666667,0.175,0.325,0.5,0.7142857142857143,0.2857142857142857,0.25,0.4285714285714286,58,18.0,No,earphones ,,English,some of the options were more high pithced at some point,SONA for course credit,,Yes,Female,,4,0,No,,Strongly Agree,Strongly Disagree,,2021-09-18 17:31:27,41853
114,S1C1239,chromatic,True,ABAABBABBBAABBBABABBBAABAABBBBBABBABABABAABABABABAABAABBABAABBAABABBBABBBABBBABABBABBAAAAAABAABAABABBBBBAAB,1.9328607321677145,1660.5500000044703,1591.0,1701.9000000059605,9346.44999999553,-110.90000000596046,0.934837534516968,12.0,29,25,6.0,24,30,6.0,49,58,13.0,120.0,60.0,60.0,54.0,0.48333333333333334,0.4166666666666667,0.1,0.4,0.5,0.1,0.4083333333333333,0.48333333333333334,0.10833333333333334,0.5370370370370371,0.46296296296296297,0.06666666666666665,0.07407407407407413,59,18.0,No,"I used in-ear earbuds (Airpods, not pro)",7-18,English,,SONA for course credit,,No,Male,,10,9+,"Yes, I do alright","Piano, Violin, Ukulele, Voice",Strongly Agree,Agree,"Listen for any notes that seemed out of place, such as a minor note in a major melody",2021-09-18 18:01:03,41955
115,S1C1239,diatonic,True,ABAABBABBBAABBBABABBBAABAABBBBBABBABABABAABABABABAABAABBABAABBAABABBBABBBABBBABABBABBAAAAAABAABAABABBBBBAAB,1.9328607321677145,1863.7000000029802,1544.3500000014901,1736.0,4459.5,-191.64999999850988,0.8896025345630704,12.0,40,13,7.0,25,28,7.0,49,58,13.0,120.0,60.0,60.0,53.0,0.6666666666666666,0.21666666666666667,0.11666666666666667,0.4166666666666667,0.4666666666666667,0.11666666666666667,0.4083333333333333,0.48333333333333334,0.10833333333333334,0.7547169811320755,0.24528301886792453,0.44999999999999996,0.509433962264151,59,18.0,No,"I used in-ear earbuds (Airpods, not pro)",7-18,English,,SONA for course credit,,No,Male,,10,9+,"Yes, I do alright","Piano, Violin, Ukulele, Voice",Strongly Agree,Agree,"Listen for any notes that seemed out of place, such as a minor note in a major melody",2021-09-18 18:01:03,41955
116,S1C1251,chromatic,True,ABBBBABBBBABABBBBBBBBBBBBBBBBBBBABBBBBBBABBABABBABBBBBBAABBBABB,0.6539193980265212,3704.6000000089407,3544.0999999940395,3168.8999999910593,3938.7000000029802,375.20000000298023,1.1184007068711663,12.0,20,19,21.0,7,32,21.0,12,51,57.0,120.0,60.0,60.0,39.0,0.3333333333333333,0.31666666666666665,0.35,0.11666666666666667,0.5333333333333333,0.35,0.1,0.425,0.475,0.5128205128205128,0.48717948717948717,0.016666666666666663,0.025641025641025605,60,22.0,No,in-ear headphones,,English,,SONA for course credit,,No,Male,,5,0,"Yes, but not so well",piano,Strongly Agree,Agree,i think I grouped strings of sounds together to make it easier to detect changes.,2021-09-21 22:31:34,41555
117,S1C1251,diatonic,True,ABBBBABBBBABABBBBBBBBBBBBBBBBBBBABBBBBBBABBABABBABBBBBBAABBBABB,0.6539193980265212,3945.0999999940395,2321.7000000029802,3155.5,5112.39999999851,-833.7999999970198,0.7357629535740707,12.0,13,11,36.0,5,19,36.0,12,51,57.0,120.0,60.0,60.0,24.0,0.21666666666666667,0.18333333333333332,0.6,0.08333333333333333,0.31666666666666665,0.6,0.1,0.425,0.475,0.5416666666666666,0.4583333333333333,0.033333333333333354,0.08333333333333331,60,22.0,No,in-ear headphones,,English,,SONA for course credit,,No,Male,,5,0,"Yes, but not so well",piano,Strongly Agree,Agree,i think I grouped strings of sounds together to make it easier to detect changes.,2021-09-21 22:31:34,41555
118,S1C1254,chromatic,True,BBBABAABAAABAABBAAAAAAABBAAABABBBBBBABABBBBBABABBBBBABAAABBABBBABABABBABAABAABAABBABABBAABBABBBABABBBBBABBABBABBABAAABBB,0.9459126908977661,1317.1999999284744,1114.6000000238419,1393.3999999761581,0.0,-278.7999999523163,0.7999138797494713,12.0,26,34,0.0,30,30,0.0,52,68,0.0,120.0,60.0,60.0,60.0,0.43333333333333335,0.5666666666666667,0.0,0.5,0.5,0.0,0.43333333333333335,0.5666666666666667,0.0,0.43333333333333335,0.5666666666666667,-0.1333333333333333,-0.1333333333333333,61,19.0,No,Over the ear,"12-14, 17-18",Chinese (Mandarin),When one tone sounds especially lower,SONA for course credit,,Yes,Female,,2,3,"Yes, but not so well","bass, piano",Agree,Strongly Agree,The change between each single tone,2021-09-22 10:33:18,41737
119,S1C1254,diatonic,True,BBBABAABAAABAABBAAAAAAABBAAABABBBBBBABABBBBBABABBBBBABAAABBABBBABABABBABAABAABAABBABABBAABBABBBABABBBBBABBABBABBABAAABBB,0.9459126908977661,1521.0,1381.699999988079,1733.9500000476837,0.0,-352.25000005960464,0.7968511202457292,12.0,36,24,0.0,22,38,0.0,52,68,0.0,120.0,60.0,60.0,60.0,0.6,0.4,0.0,0.36666666666666664,0.6333333333333333,0.0,0.43333333333333335,0.5666666666666667,0.0,0.6,0.4,0.19999999999999996,0.19999999999999996,61,19.0,No,Over the ear,"12-14, 17-18",Chinese (Mandarin),When one tone sounds especially lower,SONA for course credit,,Yes,Female,,2,3,"Yes, but not so well","bass, piano",Agree,Strongly Agree,The change between each single tone,2021-09-22 10:33:18,41737
120,S1C1600,chromatic,True,BBAABBBBAABABABBBBAABBABAAABBBABABABBBBABBAAAAABABABBBBBABAABABBABBBBABBBBAABBAABABBBAABBABBABBABAABAB,1.3537521174364786,1505.7999999970198,1527.75,2093.5,725.5,-565.75,0.729758777167423,16.0,28,23,9.0,22,29,9.0,42,60,18.0,120.0,60.0,60.0,51.0,0.4666666666666667,0.38333333333333336,0.15,0.36666666666666664,0.48333333333333334,0.15,0.35,0.5,0.15,0.5490196078431373,0.45098039215686275,0.08333333333333331,0.09803921568627455,62,20.0,No,in ear earbuds,,English,pitch,SONA for course credit,,Yes,Female,,3,0,No,,Strongly Agree,Agree,,2021-09-05 03:03:46,41326
121,S1C1600,diatonic,True,BBAABBBBAABABABBBBAABBABAAABBBABABABBBBABBAAAAABABABBBBBABAABABBABBBBABBBBAABBAABABBBAABBABBABBABAABAB,1.3537521174364786,1691.4000000059605,2015.199999988079,1579.9500000029802,1319.199999988079,435.24999998509884,1.2754834013635101,16.0,27,24,9.0,20,31,9.0,42,60,18.0,120.0,60.0,60.0,51.0,0.45,0.4,0.15,0.3333333333333333,0.5166666666666667,0.15,0.35,0.5,0.15,0.5294117647058824,0.47058823529411764,0.04999999999999999,0.05882352941176472,62,20.0,No,in ear earbuds,,English,pitch,SONA for course credit,,Yes,Female,,3,0,No,,Strongly Agree,Agree,,2021-09-05 03:03:46,41326
122,S1C1601,chromatic,True,ABBBABBBABABAABBAAABBBBAABABBABABBBABBBABBBBABAABBABBAAABBABAABBBBBABBABBABBBBBBAABABAAABBAAB,0.9668363504948702,1826.1499999761581,1579.3000000715256,1473.4500000476837,2552.149999976158,105.85000002384186,1.071838202871096,16.0,24,20,16.0,19,25,16.0,37,56,27.0,120.0,60.0,60.0,44.0,0.4,0.3333333333333333,0.26666666666666666,0.31666666666666665,0.4166666666666667,0.26666666666666666,0.30833333333333335,0.4666666666666667,0.225,0.5454545454545454,0.45454545454545453,0.06666666666666671,0.09090909090909088,63,18.0,No,"In-ear earphones (specifically, the Apple AirPods Pro)",13-18,Other (please specify below):,"The difference in the high and low pitched sounds, as well as differences in the musical rhythm",SONA for course credit,English & Korean,Yes,Male,,6,5,"Yes, I do alright",Flute,Agree,Neither Agree nor Disagree,The high and low pitched sounds,2021-09-05 12:24:39,41425
123,S1C1601,diatonic,True,ABBBABBBABABAABBAAABBBBAABABBABABBBABBBABBBBABAABBABBAAABBABAABBBBBABBABBABBBBBBAABABAAABBAAB,0.9668363504948702,1272.4499999284744,988.6500000953674,3072.7999999523163,3544.7999999523163,-2084.149999856949,0.32174238483165496,16.0,44,5,11.0,18,31,11.0,37,56,27.0,120.0,60.0,60.0,49.0,0.7333333333333333,0.08333333333333333,0.18333333333333332,0.3,0.5166666666666667,0.18333333333333332,0.30833333333333335,0.4666666666666667,0.225,0.8979591836734694,0.10204081632653061,0.6499999999999999,0.7959183673469388,63,18.0,No,"In-ear earphones (specifically, the Apple AirPods Pro)",13-18,Other (please specify below):,"The difference in the high and low pitched sounds, as well as differences in the musical rhythm",SONA for course credit,English & Korean,Yes,Male,,6,5,"Yes, I do alright",Flute,Agree,Neither Agree nor Disagree,The high and low pitched sounds,2021-09-05 12:24:39,41425
